ID,State,Position ID,Morph Step,Face Person,ITI,Trial_Onset,Stim_Onset,Stim_Offset,RT,Answer
1,1,1,7,15,1.35970754491476,610039.9911129,610041.3608816,0,1.47146940010134,8
2,1,1,1,20,1.71839842797256,610042.8358556,610044.5701589,0,1.23935409996193,1
3,1,1,5,15,1.16065995760782,610045.8118235,610046.9862222,0,1.65053330000956,5
4,1,1,3,3,1.60636039832594,610048.6372746,610050.2563918,0,1.60773489996791,4
5,1,1,9,7,1.83283169093948,610051.8663312,610053.7125575,0,1.36004259996116,8
6,1,1,7,17,1.00598666764127,610055.0727886,610056.0912362,0,1.6323450000491,7
7,1,2,4,8,1.93007153908068,610057.7237047,610059.664766,0,1.33619790000375,6
8,1,1,8,13,1.4715034076509,610061.0011064,610062.4852116,0,1.64535960007925,7
9,1,1,1,12,1.62919328800909,610064.1307925,610065.7712635,0,1.38436979998369,3
10,1,1,7,6,1.36850678458931,610067.1557679,610068.5365672,0,1.60154150007293,6
11,1,1,6,11,1.51351512495338,610070.1382251,610071.6641667,0,2.39670519996434,7
12,1,1,8,10,1.77868848515549,610074.0611266,610075.8527398,0,1.59102799999528,7
13,1,1,5,14,1.89118679988201,610077.4439154,610079.3481643,0,1.35828370007221,4
14,1,2,8,15,1.1040601949724,610080.7065717,610081.8235697,0,1.8802849999629,8
15,1,2,1,10,1.06585323207127,610083.7039983,610084.78235,0,1.95910370000638,3
16,1,1,9,5,1.15644826934859,610086.7415907,610087.9105464,0,1.62336750002578,9
17,1,1,8,17,1.78990725981313,610089.5340342,610091.3382756,0,1.59860390005633,9
18,1,1,5,4,1.73745339882186,610092.9370068,610094.6874894,0,2.19268440001179,4
19,1,1,7,7,1.03230765554313,610096.8803236,610097.9248117,0,1.56260409997776,7
20,1,2,9,7,1.98609976762166,610099.4875379,610101.4844317,0,2.16625390003901,8
21,1,2,4,15,1.4872951218138,610103.6508207,610105.1519968,0,2.59193820005748,2
22,1,1,2,20,1.09825236647206,610107.7440785,610108.8557801,0,1.34501759998966,1
23,1,2,9,17,1.41161293036106,610110.2009284,610111.623781,0,2.51120529999025,7
24,1,1,9,17,1.64477141033312,610114.1351267,610115.7929922,0,2.56954689999111,8
25,1,1,4,21,1.26477579867482,610118.3626669,610119.6404512,0,3.43085010000505,3
26,1,1,1,4,1.73974837032449,610123.0714656,610124.8245825,0,1.81973410001956,3
27,1,1,5,12,1.11116697079703,610126.6444746,610127.7689234,0,1.82287220004946,5
28,1,1,1,15,1.87741244965093,610129.5919377,610131.4826868,0,1.60781710001174,2
29,1,1,1,5,1.72467921751987,610133.090688,610134.8290023,0,2.43884169997182,2
30,1,1,1,14,1.52938365374965,610137.267983,610138.8101191,0,1.7806970999809,2
31,1,1,9,9,1.50540663863378,610140.5909618,610142.1099633,0,2.25860770000145,8
32,1,1,7,20,1.42972049145326,610144.3687172,610145.8108977,0,1.49503460002597,6
33,1,1,1,6,1.92127009381774,610147.3060619,610149.2417722,0,2.41779380000662,4
34,1,2,2,15,1.36068034063893,610151.6596798,610153.0315448,0,1.80041299993172,3
35,1,1,7,4,1.88785405336007,610154.832076,610156.7298868,0,2.34541579999495,6
36,1,2,5,19,1.63175098791603,610159.075425,610160.7195113,0,1.91869439999573,5
37,1,2,6,18,1.95921174527519,610162.6383449,610164.6093475,0,1.7164745000191,5
38,1,1,5,13,1.00771305335013,610166.3259416,610167.3464987,0,1.8326645999914,5
39,1,2,3,5,1.12674694515594,610169.1792974,610170.3177692,0,2.72825380007271,5
40,1,2,3,20,1.12952641829491,610173.0462104,610174.1885925,0,2.38507879991084,3
41,1,1,5,3,1.48322060734817,610176.5738077,610178.0709168,0,2.46599730011076,5
42,1,2,4,7,1.9376093567447,610180.5370378,610182.4873306,0,2.53948789997958,5
43,1,1,8,16,1.30935396659923,610185.02694,610186.3493284,0,2.59465370001271,6
44,1,1,3,15,1.47097873075661,610188.9441148,610190.4284408,0,2.63870759995189,4
45,1,2,3,9,1.29990181627407,610193.0672636,610194.3803313,0,2.41468390007503,2
46,1,2,6,10,1.07830585433506,610196.7951428,610197.8834316,0,1.70874889998231,5
47,1,2,2,5,1.96204667371657,610199.5923173,610201.567127,0,2.91895339998882,2
48,1,2,5,4,1.50415890098738,610204.4861971,610206.003997,0,3.83166579995304,5
49,1,2,6,17,1.5273206330763,610209.8358296,610211.3771586,0,2.50672049995046,5
50,1,1,8,1,1.07737139756797,610213.8840203,610214.9747639,0,1.55118389998097,7
51,1,2,2,21,1.54295830503081,610216.5260895,610218.081766,0,2.88271799997892,2
52,1,1,6,1,1.8983878096439,610220.9646244,610222.8764784,0,2.0109276000876,5
53,1,2,1,8,1.26295576162913,610224.8875495,610226.1647756,0,2.63059519999661,1
54,1,1,6,18,1.16497884107723,610228.7955469,610229.9723914,0,1.7853732999647,5
55,1,1,2,10,1.17789415523104,610231.7580223,610232.948094,0,2.89287089998834,1
56,1,2,4,19,1.73089962141165,610235.8411158,610237.5831386,0,2.89134950004518,5
57,1,1,6,12,1.84540908612597,610240.4746277,610242.333775,0,2.32895150000695,5
58,1,2,4,9,1.42016610749566,610244.6628561,610246.0964248,0,3.10069350001868,3
59,1,1,6,15,1.90181450127486,610249.1972509,610251.1118137,0,3.01311480009463,6
60,1,1,8,21,1.89650507826246,610254.1250699,610256.0351277,0,3.20449510007165,7
61,1,2,5,15,1.61772161277372,610259.2407729,610260.8724661,0,1.81885349994991,3
62,1,1,3,7,1.46527151416927,610262.6914611,610264.1703436,0,2.1688707000576,3
63,1,1,8,8,1.30474574126402,610266.3393847,610267.6567387,0,2.54636729997583,7
64,1,2,5,10,1.29990532124468,610270.2032504,610271.5164744,0,2.96926390007138,2
65,1,1,4,20,1.06559765479559,610274.4858598,610275.5646216,0,3.29974679998122,5
66,1,1,4,13,1.01135277916285,610278.8644915,610279.8888052,0,2.41822420002427,5
67,1,2,8,6,1.70780851209266,610282.3071763,610284.0283141,0,2.05676059995312,8
68,1,1,5,7,1.37170601040857,610286.0851982,610287.469948,0,3.16416289994959,5
69,1,2,3,10,1.48450912490731,610290.6342676,610292.1321332,0,1.59418950008694,4
70,1,1,2,1,1.10574269044192,610293.7264705,610294.8452302,0,1.70337700005621,3
71,1,1,3,6,1.40823151910258,610296.5487495,610297.9693873,0,1.89684770000167,4
72,1,1,8,22,1.19275881747888,610299.8664638,610301.0719272,0,1.91151520004496,8
73,1,1,3,1,1.99449177843739,610302.9836108,610304.991291,0,2.61079299997073,2
74,1,1,3,20,1.08471877389608,610307.6022311,610308.7001029,0,3.1853227999527,1
75,1,1,7,21,1.12029472555842,610311.8855445,610313.0182598,0,1.72429359995294,7
76,1,1,5,10,1.5424961395681,610314.7426694,610316.2985475,0,1.59143789997324,5
77,1,1,6,10,1.16545000087049,610317.890104,610319.0684145,0,1.65380460000597,5
78,1,2,4,20,1.90664829718253,610320.7223407,610322.6411573,0,1.77896889997646,5
79,1,2,9,4,1.75707863550284,610324.420301,610326.1910715,0,2.02197730005719,8
80,1,1,7,19,1.74362495784272,610328.2131767,610329.9672671,0,2.37920590001158,6
81,1,1,2,17,1.99437037207336,610332.3466145,610334.3540179,0,1.90632750000805,2
82,1,2,4,21,1.42438455594068,610336.2605072,610337.697112,0,1.97991320001893,5
83,1,2,5,7,1.90031032412309,610339.6771721,610341.5909854,0,1.94908469996881,5
84,1,2,5,12,1.6796973512844,610343.5402068,610345.2325461,0,2.6759211999597,5
85,1,1,3,14,1.10724778230064,610347.9086053,610349.0294671,0,2.09150549990591,3
86,1,2,1,15,1.18024460499265,610351.1211098,610352.3143806,0,1.72888059995603,2
87,1,2,2,4,1.79769996046921,610354.0433934,610355.8538583,0,2.00235959992278,4
88,3,2,2,7,1.37211095601609,610357.8563734,610359.2413613,0,NaN,None
89,1,2,7,19,1.84372518494476,610363.2421637,610365.1005499,0,2.23391030007042,5
90,1,2,6,7,1.46937180066817,610367.334591,610368.8164841,0,2.46102500008419,6
91,1,1,1,8,1.80836249155893,610371.277643,610373.0993344,0,1.26058799994644,1
92,1,1,8,11,1.73849331620028,610374.3600556,610376.1088196,0,1.74284489999991,7
93,1,2,2,1,1.71627040443476,610377.8518009,610379.5819973,0,2.0624568000203,2
94,1,1,9,20,1.8903892482892,610381.6446249,610383.5487802,0,1.35318570001982,7
95,1,2,2,8,1.25000009490579,610384.9021247,610386.1634419,0,2.27112869999837,2
96,1,2,8,2,1.80531412316908,610388.4346916,610390.2530372,0,2.88518860004842,7
97,1,2,8,10,1.28440558399852,610393.1383911,610394.436144,0,1.5792682999745,7
98,1,2,3,7,1.6082686613511,610396.0155392,610397.6359645,0,3.32330219994765,2
99,1,2,8,11,1.38337655707611,610400.9594013,610402.3563363,0,3.34195739997085,6
100,1,2,8,3,1.9481502071631,610405.6984449,610407.6592799,0,2.12159559992142,6
101,1,1,6,13,1.25881600647911,610409.7810097,610411.0545154,0,3.32581279997248,4
102,1,2,8,7,1.15753548750118,610414.3804437,610415.5509239,0,2.21102090005297,7
103,1,2,9,12,1.88601649782257,610417.7620765,610419.660632,0,1.72988210001495,7
104,1,2,1,13,1.69905442383252,610421.3906559,610423.1022566,0,2.15561649994925,3
105,1,1,7,10,1.20631885826082,610425.2579808,610426.4782847,0,2.28216310008429,6
106,1,1,4,19,1.30895360680127,610428.7605836,610430.0822488,0,1.79052170005161,5
107,1,1,8,2,1.07749334288666,610431.8729493,610432.9635936,0,2.73217400000431,8
108,1,1,6,9,1.41699859473504,610435.6959106,610437.1267548,0,2.06666959996801,5
109,1,1,4,14,1.40476490612088,610439.193549,610440.6116539,0,2.55992639996111,4
110,1,1,7,12,1.48393214739919,610443.1717066,610444.6677825,0,2.18182880000677,6
111,1,1,8,4,1.1359046900303,610446.849743,610447.9988482,0,2.82392100000288,8
112,1,1,6,16,1.73784998623882,610450.8229434,610452.571803,0,2.26964539999608,6
113,1,1,3,8,1.23928444677694,610454.8415628,610456.0941269,0,1.95926860009786,4
114,1,2,6,8,1.31631434048751,610458.053558,610459.3827231,0,2.03402120003011,6
115,1,1,3,2,1.12807012304169,610461.4168806,610462.5579714,0,1.92036220000591,4
116,1,2,6,2,1.82143208888816,610464.4784608,610466.3132726,0,1.86789740005042,5
117,1,2,1,11,1.24697547237678,610468.1813043,610469.4409831,0,2.56319130002521,2
118,1,2,8,1,1.60377169693771,610472.0043102,610473.6205544,0,1.73317809996661,7
119,1,1,6,8,1.6403839608465,610475.3538681,610477.0077444,0,1.71650180011056,6
120,1,1,7,1,1.37105458517854,610478.7243881,610480.1081965,0,2.76913350005634,6
121,1,2,5,17,1.91766456292916,610482.8774448,610484.8089159,0,1.74618990009185,4
122,1,1,4,15,1.43231700583901,610486.5552235,610488.0000499,0,2.4590911999112,5
123,1,2,9,20,1.29414541392734,610490.459278,610491.7660664,0,1.69539720006287,9
124,1,1,8,7,1.39150317792558,610493.4616041,610494.8658386,0,1.71713310002815,8
125,1,1,8,19,1.67299856426528,610496.5831028,610498.2697909,0,1.36049259989522,7
126,1,2,6,4,1.49680047106041,610499.6304716,610501.1401852,0,2.88367539993487,5
127,1,1,2,12,1.62401413122742,610504.024027,610505.6614429,0,1.60452809999697,4
128,1,1,4,7,1.830079447245,610507.2661043,610509.1101958,0,1.63327370001934,5
129,1,1,6,17,1.26590357993649,610510.7436251,610512.0229327,0,2.46116359997541,5
130,1,1,5,9,1.5641689252772,610514.484253,610516.0610814,0,3.55408329993952,4
131,1,1,4,6,1.99899818856375,610519.615283,610521.627388,0,2.24564730003476,5
132,1,1,2,3,1.35041582465376,610523.8731799,610525.2376706,0,2.03804210003,2
133,1,2,7,10,1.90602699897131,610668.5029934,610670.9787332,0,3.39410699997097,6
134,1,1,2,19,1.1346805804047,610674.3761418,610675.5252031,0,3.57585449994076,4
135,1,2,5,5,1.9510932863701,610679.1011757,610681.065686,0,2.02816909993999,4
136,1,2,4,1,1.91377462208153,610683.0941028,610685.0214827,0,2.17023159994278,4
137,1,1,3,16,1.30470592972709,610687.19183,610688.5102489,0,1.92392299999483,4
138,1,2,3,11,1.20625802568761,610690.4343078,610691.6534495,0,1.21757069998421,4
139,1,1,6,6,1.34366645520114,610692.8711575,610694.2265262,0,1.52174150000792,5
140,1,1,2,22,1.71582107880753,610695.7484152,610697.4772811,0,2.18394969997462,1
141,1,1,6,20,1.50598892134302,610699.6613804,610701.179782,0,3.00480500003323,5
142,1,2,9,2,1.84321961935922,610704.1847202,610706.040544,0,1.58855410001706,7
143,1,1,5,17,1.74648878507337,610707.6292235,610709.3897465,0,2.77533070009667,5
144,1,2,9,15,1.07335885075735,610712.1652285,610713.2520657,0,2.86069480003789,8
145,1,1,7,9,1.28287718070575,610716.1129262,610717.4099778,0,1.57968880003318,6
146,1,2,3,18,1.34510480399197,610718.9898106,610720.3482056,0,1.72861979994923,4
147,1,2,9,3,1.17828449312685,610722.0769607,610723.2689192,0,2.22024669998791,6
148,1,1,2,5,1.05793402413377,610725.489293,610726.5671563,0,1.61391380010173,4
149,1,2,1,9,1.19771548100997,610728.1812342,610729.3929612,0,1.62004890001845,2
150,1,2,3,3,1.66596734982317,610731.0131732,610732.6913439,0,1.88514329993632,4
151,1,2,7,12,1.05918277051402,610734.5766745,610735.647567,0,1.75500949996058,6
152,1,2,3,13,1.3858431328337,610737.4026926,610738.8019667,0,1.6727671000408,5
153,1,2,8,14,1.53991296275495,610740.4748703,610742.0275976,0,1.6795130999526,8
154,1,1,4,9,1.57543114765,610743.7072549,610745.2952502,0,1.68420710007194,4
155,1,2,6,15,1.54331788586343,610746.9795709,610748.5357092,0,2.08255560009275,6
156,1,1,1,11,1.54580147508222,610750.6184164,610752.1776275,0,2.17750430002343,2
157,1,1,9,13,1.85590728569544,610754.3552721,610756.2244764,0,1.88846960000228,7
158,1,1,9,16,1.98918450574751,610758.1130625,610760.1224244,0,2.18352300010156,7
159,1,2,2,12,1.54835516493685,610762.3060778,610763.8675967,0,1.89601530006621,4
160,1,1,8,3,1.42930258047595,610765.7637284,610767.2062311,0,1.44060410000384,6
161,1,2,3,12,1.51562892157163,610768.6469572,610770.1767852,0,3.05253250000533,4
162,1,2,7,7,1.2990518745342,610773.229433,610774.5418066,0,1.69486969988793,6
163,1,1,5,18,1.34498253253406,610776.2368058,610777.5951079,0,1.66392249998171,5
164,1,2,3,2,1.27222162408635,610779.2591671,610780.5424962,0,1.2733172000153,4
165,1,2,5,18,1.99228488873351,610781.8159278,610783.8222671,0,1.62109290005174,5
166,1,1,1,22,1.64270693374928,610785.4434945,610787.0995253,0,1.55193459999282,1
167,1,1,9,6,1.05608106258395,610788.6516189,610789.7210286,0,1.6565597000299,7
168,1,2,6,1,1.13111112683253,610791.3777256,610792.5214866,0,2.47362639999483,5
169,1,2,1,12,1.27720485776044,610794.9952351,610796.2859463,0,3.14741420000792,3
170,1,2,5,14,1.96526278315088,610799.4334962,610801.4101501,0,1.95094130001962,5
171,1,1,5,1,1.40260460563907,610803.3612245,610804.7776771,0,1.36042649997398,5
172,1,1,9,3,1.78702699527718,610806.1382679,610807.938974,0,1.86671749991365,7
173,1,2,4,11,1.6827510930945,610809.8058242,610811.502523,0,2.40598569996655,5
174,1,2,6,16,1.3018968529702,610813.9086367,610815.2227661,0,1.25265570008196,5
175,1,2,7,2,1.66833173175469,610816.4755623,610818.1585304,0,2.90027270000428,6
176,1,2,2,11,1.74837574632653,610821.0589388,610822.8212114,0,2.3205345000606,3
177,1,1,4,12,1.23757526788549,610825.1419171,610826.3939264,0,1.35475589998532,4
178,1,1,9,1,1.72478044818711,610827.7488198,610829.4877026,0,2.7092338000657,7
179,1,1,4,4,1.97332262016679,610832.1970737,610834.184236,0,1.84064860001672,4
180,1,2,5,11,1.36794471432046,610836.0250199,610837.4066378,0,2.40600129996892,5
181,1,1,2,2,1.00894997424919,610839.8127851,610840.8376073,0,2.19233340001665,4
182,1,1,4,8,1.02071066283324,610843.0300914,610844.0644584,0,1.52278819994535,5
183,1,2,2,16,1.89479832649354,610845.5874795,610847.4958735,0,1.67396739998367,4
184,1,2,4,12,1.8884249717321,610849.1700077,610851.0721602,0,3.35162870003842,5
185,1,1,5,19,1.30196055801856,610854.4239272,610855.7392595,0,1.96799019991886,5
186,1,2,7,1,1.02848165067838,610857.7074314,610858.7482877,0,2.71592330001295,6
187,1,1,5,2,1.71297447261126,610861.4643765,610863.1908794,0,2.84668179997243,5
188,1,2,6,13,1.74068554119712,610866.0377334,610867.7919162,0,1.85533460008446,5
189,1,2,7,14,1.57684161462683,610869.6473951,610871.2369417,0,1.96107990003657,7
190,1,1,9,8,1.195417770174,610873.1981471,610874.4070347,0,1.64342490001582,7
191,1,2,6,20,1.84696686623244,610876.0505814,610877.9106062,0,1.99759799998719,5
192,3,2,1,4,1.10464570222156,610879.9083227,610881.0263122,0,NaN,None
193,1,1,3,21,1.2966498237193,610885.0267218,610886.3388708,0,2.56630189996213,4
194,1,1,4,11,1.35495930229073,610888.9052786,610890.273936,0,2.08380620006938,5
195,1,2,5,20,1.91014040126884,610892.357904,610894.2819391,0,0.887926699942909,5
196,1,2,7,5,1.17851609279262,610895.1699801,610896.3613127,0,1.1303122000536,6
197,1,1,8,18,1.78787422504387,610897.4917363,610899.2943378,0,2.07546099997126,7
198,1,1,5,11,1.6950025100768,610901.3699148,610903.0784715,0,2.42937190004159,5
199,1,2,7,11,1.78601461464535,610905.5079587,610907.3071032,0,1.25797779997811,6
200,1,2,1,20,1.06955657901107,610908.5651964,610909.6485845,0,2.15399480005726,3
201,1,2,1,17,1.44100942461074,610911.8026982,610913.2585762,0,1.6312749000499,2
202,1,1,7,16,1.06851424118466,610914.8899991,610915.9725031,0,1.48438289994374,6
203,1,1,8,9,1.06158186811364,610917.4569998,610918.5321139,0,1.97215470008086,7
204,1,2,5,1,1.59407175800709,610920.5043896,610922.1124763,0,1.91446410003118,5
205,1,2,1,1,1.20844261023845,610924.0270588,610925.2492623,0,2.00510559999384,3
206,1,1,1,17,1.20253374867635,610927.2545214,610928.4716119,0,1.27053550002165,2
207,1,2,1,22,1.76518162351731,610929.7423006,610931.5214567,0,1.83260599989444,1
208,1,1,8,20,1.17566991710939,610933.3541961,610934.5426125,0,1.86882279999554,6
209,1,1,7,5,1.03218818585826,610936.4115701,610937.458123,0,1.1550217999611,6
210,1,1,3,12,1.97891684451383,610938.6132566,610940.6048879,0,1.94639290007763,4
211,1,2,8,18,1.72170562586757,610942.5514393,610944.2864941,0,1.98787109996192,6
212,1,2,6,6,1.17649587565569,610946.2745143,610947.4647566,0,2.59272610000335,5
213,1,1,1,7,1.41498789945489,610950.0576125,610951.4856876,0,1.78429159999359,3
214,1,1,1,1,1.05284545522351,610953.2701166,610954.336087,0,1.85618460003752,2
215,1,2,7,3,1.0172627064892,610956.1924323,610957.2230983,0,1.711349899997,6
216,1,2,9,5,1.24268167684595,610958.9346175,610960.1900271,0,1.00122029997874,7
217,1,2,4,5,1.51412668923532,610961.1913885,610962.7195878,0,3.31057780003175,5
218,1,2,4,6,1.33589401858712,610966.030301,610967.3802488,0,0.946706500020809,5
219,1,1,2,16,1.59205068181404,610968.3271096,610969.9325099,0,1.5519714000402,4
220,1,1,9,21,1.78936270104555,610971.4846351,610973.2880037,0,1.50523850007448,8
221,1,1,4,17,1.44975634127698,610974.7934288,610976.2569665,0,1.69253480003681,5
222,1,2,7,13,1.54052006201732,610977.9496862,610979.5027809,0,2.0645151999779,6
223,1,1,8,14,1.44556415321299,610981.5674435,610983.0267481,0,1.58806259999983,8
224,1,2,3,14,1.46138519486187,610984.6149756,610986.0869638,0,2.25102009996772,3
225,1,2,8,22,1.37460589587101,610988.3381218,610989.7270934,0,2.38890900008846,7
226,1,2,7,9,1.49474227418778,610992.1161295,610993.6238918,0,2.98075730004348,7
227,1,2,1,2,1.00259639852558,610996.604793,610997.6229902,0,2.13504060008563,3
228,1,2,1,14,1.54849293484174,610999.7581541,611001.3204426,0,1.19397680007387,3
229,1,2,1,16,1.51361925386196,611002.5145362,611004.0423114,0,1.98986960004549,3
230,1,1,3,4,1.48627051627486,611006.0323104,611007.5304044,0,1.87465190002695,5
231,1,2,6,9,1.02044390225669,611009.4052071,611010.440015,0,1.33286900003441,5
232,1,2,6,5,1.65131208287055,611011.7730016,611013.4378331,0,1.9121138000628,5
233,1,2,9,11,1.04440200282261,611015.350155,611016.4083895,0,1.43939039995894,7
234,1,2,1,7,1.13387507770769,611017.847916,611018.9945442,0,1.45476739993319,2
235,1,1,4,3,1.7351295214173,611020.4494268,611022.1979716,0,2.08376770000905,5
236,1,2,9,8,1.44555312604818,611024.2819462,611025.7410625,0,2.72913389990572,8
237,1,1,7,2,1.6896164481535,611028.4703401,611030.172836,0,1.8799016000703,6
238,1,1,6,14,1.66165703771188,611032.0528562,611033.7278957,0,2.43781259993557,5
239,1,1,2,21,1.78212478161283,611036.1658204,611037.9607206,0,2.30816989997402,4
240,1,2,5,21,1.1326273331319,611040.2690047,611041.4154806,0,1.68550800008234,5
241,1,1,3,17,1.46281340813049,611043.1011091,611044.5777623,0,2.71141919994261,2
242,1,2,7,17,1.58832246081548,611047.289316,611048.8913946,0,2.36084779992234,6
243,1,1,4,1,1.07077201311464,611051.2523805,611052.3366334,0,1.4324836001033,5
244,1,2,7,4,1.87247320561114,611053.7692333,611055.6554545,0,2.61220049997792,6
245,1,1,4,16,1.6156463360879,611058.26779,611059.8965236,0,1.49364610004704,5
246,1,1,5,6,1.6409437592092,611061.3903047,611063.0443153,0,1.23805290006567,5
247,3,2,7,6,1.85489668934222,611064.2825031,611066.1512255,0,NaN,None
248,1,1,2,8,1.22922806944047,611070.1512647,611071.3945745,0,1.81964829994831,2
249,1,2,5,6,1.3861105697441,611073.2143585,611074.6138152,0,2.44351429992821,5
250,1,1,5,5,1.91673577270855,611077.0574635,611078.9877902,0,1.10723649989814,5
251,1,1,8,15,1.71729401907963,611080.0951758,611081.8266032,0,1.72582039993722,8
252,1,2,8,20,1.93125145992774,611083.5525557,611085.4971799,0,1.95328420004807,7
253,1,1,3,13,1.31346378932452,611087.4506086,611088.7772871,0,3.86258960003033,5
254,1,1,6,3,1.90559006207086,611092.6400126,611094.5585827,0,1.55859620007686,5
255,1,1,1,3,1.87473274578923,611096.1173483,611098.0054098,0,3.35577050002757,2
256,1,2,6,22,1.53773314029409,611101.3613255,611102.9134585,0,1.30004779994488,5
257,1,1,5,16,1.24626878229187,611104.2136618,611105.4786034,0,0.691372399916872,5
258,1,2,5,3,1.47887814659604,611106.1700996,611107.6620832,0,0.669814800028689,5
259,1,2,8,8,1.97642193158798,611108.3320294,611110.3223673,0,1.30200689996127,7
260,1,2,6,14,1.38112780201066,611111.62449,611113.019227,0,2.77845209999941,6
261,1,2,3,8,1.2110598942385,611115.7978284,611117.0229069,0,1.65204519999679,3
262,1,1,5,21,1.24321932024478,611118.6750694,611119.9320164,0,1.41023629996926,5
263,1,1,6,7,1.46942834929357,611121.3423877,611122.8252474,0,2.56011990003753,6
264,1,1,7,8,1.38788108591842,611125.3855047,611126.7865535,0,3.08824329997879,7
265,1,1,3,19,1.75370473675769,611300.1084717,611301.9778544,0,1.60460930003319,4
266,1,2,9,22,1.94376338577836,611303.5827524,611305.5409079,0,2.39966990007088,7
267,1,1,4,10,1.84039117295039,611307.940755,611309.794425,0,1.87864720006473,4
268,1,2,5,16,1.88990451448825,611311.6732081,611313.5770548,0,1.83870079996996,5
269,1,1,1,10,1.97963391890936,611315.4159222,611317.4101284,0,1.22790210007224,4
270,1,2,2,6,1.02670076201508,611318.6381615,611319.6778828,0,2.92795599997044,5
271,1,1,4,2,1.9053365194358,611322.6059688,611324.5252922,0,1.18818349996582,5
272,1,2,1,18,1.34104699742012,611325.7136419,611327.0682525,0,3.36822900001425,1
273,1,1,9,2,1.69771181348199,611330.4366043,611332.1484875,0,1.32549770001788,7
274,1,1,2,18,1.60399817155998,611333.4741075,611335.090898,0,3.10618179989979,2
275,1,1,2,13,1.40876831236909,611338.1972554,611339.6194003,0,2.15522630000487,4
276,1,2,4,13,1.07985737168447,611341.7747631,611342.8686631,0,1.09748050000053,5
277,1,2,2,18,1.1257375203549,611343.9663105,611345.10293,0,1.87029679992702,2
278,1,2,1,19,1.48428248343757,611346.9733618,611348.4718008,0,2.39920390001498,4
279,1,1,4,5,1.35542587405085,611350.871143,611352.2400735,0,1.28783809999004,5
280,1,2,3,4,1.30367432907312,611353.5280307,611354.8454768,0,1.46462370001245,5
281,1,1,8,12,1.95193451048325,611356.3102226,611358.276642,0,2.07131080003455,7
282,1,2,9,10,1.87000632668957,611360.3480754,611362.2320777,0,2.7642614999786,8
283,1,2,4,4,1.42917436596123,611364.9964839,611366.4396902,0,1.64978279999923,5
284,1,2,3,1,1.38772608824341,611368.0896062,611369.4911242,0,1.21479869994801,4
285,1,1,3,22,1.51413849249868,611370.706079,611372.2354211,0,1.39763469994068,3
286,1,2,1,6,1.46542643087305,611373.6331957,611375.108517,0,2.26231490005739,4
287,1,2,2,20,1.31452116274486,611377.370941,611378.6987694,0,1.57903589995112,2
288,1,2,9,14,1.04892039120261,611380.277932,611381.3399908,0,1.93497930001467,8
289,1,1,2,11,1.48260766701544,611383.2751091,611384.7715323,0,1.59565769997425,3
290,1,2,9,13,1.98999109013922,611386.367318,611388.3700891,0,1.53957170003559,6
291,1,2,6,21,1.32622901904393,611389.9097723,611391.2485213,0,2.19367659999989,5
292,1,1,5,8,1.40619988506031,611393.4423113,611394.8620279,0,1.60732480010483,6
293,1,2,4,18,1.85271610310807,611396.4694948,611398.3366525,0,2.22054460004438,4
294,1,1,8,6,1.09309565312736,611400.5573289,611401.6640187,0,2.39667279995047,7
295,1,1,1,2,1.85334665682126,611404.0608079,611405.9279353,0,2.02472719992511,4
296,1,2,8,19,1.15435329989154,611407.9528174,611409.1208875,0,1.46870730002411,6
297,1,1,4,22,1.32439148141757,611410.5897128,611411.9278843,0,3.08504489995539,4
298,1,1,6,2,1.40369637313135,611415.0130652,611416.4297629,0,0.969984799972735,5
299,1,1,1,13,1.98585286314667,611417.3998818,611419.3970342,0,1.60030759999063,3
300,1,1,1,18,1.23078342181366,611420.9975054,611422.2413441,0,3.4044014000101,1
301,1,1,1,21,1.92340892352668,611425.6458827,611427.5828911,0,1.47544010006823,3
302,1,1,1,19,1.08969994803412,611429.0584711,611430.1608736,0,1.30424149997998,4
303,1,2,5,2,1.97479532527388,611431.4652764,611433.4530593,0,2.69632680003997,5
304,1,2,6,19,1.13212303059372,611436.1495229,611437.2956163,0,1.90513050009031,6
305,1,2,9,1,1.25906030388526,611439.2008859,611440.4744735,0,1.62421859998722,7
306,1,2,3,17,1.68686193212442,611442.0988293,611443.798249,0,1.29282279999461,4
307,1,1,1,16,1.773391482919,611445.0911971,611446.8776064,0,1.58493609994184,4
308,1,1,3,11,1.03602999620268,611448.4627107,611449.5094827,0,3.09156119998079,4
309,1,2,1,5,1.21290216962573,611452.6011766,611453.8274082,0,2.39579440001398,2
310,1,1,3,5,1.75533714767324,611456.2233664,611457.9926387,0,1.20776620006654,5
311,1,2,4,3,1.22600652764601,611459.2005662,611460.4400779,0,1.417213800014,5
312,1,2,4,16,1.65746665918243,611461.8574719,611463.5280487,0,1.50641480006743,5
313,1,1,2,6,1.6671030433117,611465.0346171,611466.716362,0,2.90170729998499,4
314,1,2,9,21,1.84893273813062,611469.6182096,611471.4799986,0,1.97585619997699,7
315,1,1,7,13,1.83069431999272,611473.4559711,611475.2999808,0,1.81452609994449,6
316,1,1,2,7,1.56278086019526,611477.1146396,611478.690636,0,2.87131850002334,3
317,1,1,6,19,1.12123222328102,611481.5620821,611482.6974056,0,1.62659890006762,5
318,1,2,2,13,1.27750820831655,611484.3241278,611485.6147689,0,1.46127870003693,4
319,1,1,4,18,1.35848979001936,611487.0761629,611488.4488607,0,2.42000040004496,5
320,1,2,4,22,1.60821649779219,611490.868997,611492.490113,0,1.54608549992554,5
321,1,2,6,12,1.09401929523485,611494.0363152,611495.1448686,0,1.31316320004407,6
322,1,1,9,14,1.63640443716107,611496.4581747,611498.1074673,0,1.48792749992572,8
323,1,2,8,4,1.36929980501239,611499.5955128,611500.9783993,0,2.31965660001151,7
324,1,2,8,13,1.38812516637101,611503.2982181,611504.6991586,0,1.23587800003588,6
325,1,2,9,6,1.92044411068939,611505.9351983,611507.8693186,0,1.54338199994527,7
326,1,2,6,11,1.9660160235328,611509.4128346,611511.3919393,0,1.25805840000976,6
327,1,2,5,13,1.8014481597791,611512.650127,611514.4648924,0,1.84788440004922,5
328,3,2,5,9,1.64903253511317,611516.3129247,611517.9753419,0,NaN,None
329,1,1,2,9,1.51246826469952,611521.9753789,611523.5014591,0,1.91368439991493,2
330,1,1,9,15,1.4902801610062,611525.4152726,611526.9180183,0,2.29593440005556,8
331,1,2,2,10,1.74931327329545,611529.214089,611530.9770961,0,2.2789877000032,3
332,1,2,6,3,1.50130514085181,611533.2562177,611534.7710511,0,1.61737980006728,5
333,1,1,6,21,1.70329834575516,611536.3885638,611538.1055609,0,1.26511320006102,5
334,1,1,7,3,1.84073826396404,611539.370846,611541.2250357,0,1.6233501000097,6
335,1,1,7,18,1.74984533766929,611542.8485245,611544.6116883,0,2.13966779992916,5
336,1,1,7,14,1.31287503494485,611546.7514903,611548.0782425,0,1.16606449999381,6
337,1,2,2,22,1.29819593886,611549.2444803,611550.5561137,0,2.5049946999643,1
338,1,1,9,22,1.50734447666767,611553.0612558,611554.5823122,0,2.05644359998405,8
339,1,1,9,4,1.18094398375886,611556.6388812,611557.8329397,0,1.60298099997453,7
340,1,2,3,22,1.03222219859,611559.4360545,611560.482063,0,2.20170239999425,3
341,1,1,6,5,1.90260290343676,611562.6838994,611564.6001066,0,1.22570419998374,5
342,1,2,7,16,1.4667000008081,611565.8259633,611567.3061806,0,2.50771060003899,6
343,1,2,5,22,1.31784783266905,611569.8140637,611571.1453222,0,0.865183599991724,5
344,1,2,9,16,1.17274263583829,611572.0106452,611573.1965148,0,1.9973152000457,7
345,1,2,8,17,1.87885510481545,611575.1939569,611577.0872997,0,1.0028597000055,7
346,1,2,3,6,1.54727078430808,611578.0902961,611579.6510697,0,2.35691570001654,5
347,1,2,4,14,1.98824779234289,611582.0082201,611584.0098684,0,2.79663789994083,4
348,1,2,8,21,1.38857896721893,611586.8066327,611588.2083932,0,2.61618190002628,7
349,1,1,9,12,1.66725181775876,611590.8247432,611592.5063451,0,1.88081440003589,8
350,1,1,9,19,1.77604228682484,611594.3872836,611596.1776632,0,1.77720160002355,7
351,1,1,6,22,1.76895004375723,611597.9549982,611599.737477,0,3.16687519999687,6
352,1,1,3,9,1.23666248085984,611602.9044769,611604.1546383,0,1.52153560006991,4
353,1,2,2,14,1.1712885983638,611605.6762899,611606.8586187,0,1.5793021999998,3
354,1,2,7,21,1.99499411634043,611608.4380515,611610.4471543,0,3.31975349993445,6
355,1,2,8,9,1.42922173552599,611613.7670397,611615.209919,0,1.65439969999716,7
356,1,1,9,10,1.18266863232612,611616.864484,611618.0605623,0,0.945377499912865,7
357,1,1,6,4,1.66609420882957,611619.0061216,611620.6860075,0,1.73758419998921,5
358,1,2,9,18,1.75168581518302,611622.4237623,611624.1891756,0,1.84737339999992,7
359,1,1,3,18,1.50295615915393,611626.036686,611627.5535074,0,3.05170499999076,3
360,1,1,5,20,1.41351756973534,611630.6053485,611632.0320165,0,1.90083309996407,5
361,1,1,3,10,1.66817364049108,611633.9329657,611635.6146369,0,1.03031509998254,4
362,1,2,5,8,1.77294482492544,611636.6451105,611638.4303885,0,1.24201310006902,6
363,1,2,4,10,1.80333829409155,611639.6725378,611641.4886851,0,1.76739589998033,5
364,1,2,8,12,1.17368599191332,611643.2562241,611644.4430468,0,1.46907940006349,7
365,1,1,7,11,1.73891200569361,611645.9122977,611647.6648024,0,1.70496669993736,6
366,1,2,4,17,1.62833160918952,611649.3699239,611651.0106955,0,3.34807990002446,5
367,1,1,2,14,1.02205176071013,611654.3589497,611655.39576,0,1.57997550000437,3
368,1,2,7,22,1.83683077803822,611656.9759113,611658.8252076,0,1.4840326999547,6
369,1,1,7,22,1.05484325589115,611660.3093955,611661.377503,0,1.00745909998659,6
370,1,2,3,15,1.83434501820392,611662.3850986,611664.2327806,0,1.76488879998215,4
371,1,2,3,16,1.14932462143725,611665.9978216,611667.1607046,0,2.05426299991086,4
372,1,2,8,5,1.4772891471934,611669.2150986,611670.7059387,0,2.80747700005304,6
373,1,2,7,8,1.51664284255078,611673.5135535,611675.0441194,0,1.36140310007613,7
374,1,1,5,22,1.90522813524143,611676.4056957,611678.3247631,0,1.16302269999869,5
375,1,1,2,15,1.22816977898485,611679.4879159,611680.730075,0,1.3446015000809,3
376,1,2,7,15,1.05613518742012,611682.074842,611683.1437055,0,2.50861379993148,7
377,1,2,7,20,1.1713608876263,611685.6524572,611686.8383491,0,1.11076489998959,6
378,1,2,2,17,1.31537268745294,611687.9492657,611689.2785909,0,1.50267750001512,3
379,1,2,9,19,1.75633547216309,611690.7814258,611692.5520117,0,2.78359470004216,6
380,1,1,9,18,1.32188359764139,611695.3357418,611696.671041,0,1.06045329989865,7
381,1,1,2,4,1.37551472279087,611697.7316293,611699.1208544,0,1.44783329998609,4
382,1,1,1,9,1.8788408706176,611700.5688219,611702.4610403,0,1.71018220006954,2
383,1,2,3,19,1.4854584668629,611704.1714224,611705.6703075,0,2.35381999996025,5
384,1,2,8,16,1.71789440789635,611708.0242543,611709.7547531,0,2.27746130002197,7
385,1,2,1,21,1.50177137578192,611712.0323501,611713.5476268,0,1.93217009992804,3
386,1,2,3,21,1.57356535115313,611715.4799275,611717.066957,0,0.709619500092231,3
387,1,2,1,3,1.64562232494073,611717.7766909,611719.4350495,0,1.18861210008617,2
388,1,2,2,19,1.56575519839311,611720.6237903,611722.2026251,0,1.2382282000035,4
389,1,1,8,5,1.65175007670217,611723.4409695,611725.1066132,0,2.23295159998816,7
390,1,2,2,2,1.40281084748461,611727.3396912,611728.7556007,0,2.98141289991327,3
391,1,2,9,9,1.27087325622291,611731.7371272,611733.0214936,0,2.36427819996607,8
392,1,2,2,9,1.51108326841848,611735.3858983,611736.9103147,0,1.46753949997947,3
393,1,1,9,11,1.23045129206105,611738.3780012,611739.6226629,0,1.33146879996639,6
394,1,2,7,18,1.87592208023319,611740.9542496,611742.8431024,0,2.71943530009594,7
395,1,2,2,3,1.36123563602359,611745.5626683,611746.9376237,0,1.22691329999361,3
396,1,2,4,2,1.90093947740247,611748.1646479,611750.0790072,0,1.2990307,5
