ID,State,Position ID,Morph Step,Face Person,ITI,Trial_Onset,Stim_Onset,Stim_Offset,RT,Answer
1,1,1,1,9,1.949205362,56808.1397,56810.0889,0,1.9164736,3
2,1,2,4,20,1.405595984,56812.0053,56813.4109,0,0.9647727,4
3,1,1,9,11,1.565431612,56814.3757,56815.9411,0,2.3370525,9
4,1,1,2,6,1.208931092,56818.2782,56819.4871,0,1.0892613,2
5,1,2,4,14,1.793625809,56820.5764,56822.3700,0,2.0518788,5
6,1,2,8,18,1.603829337,56824.4219,56826.0257,0,1.5025447,4
7,1,1,5,4,1.767537713,56827.5283,56829.2958,0,1.1560305,4
8,3,1,4,21,1.795601245,56830.4518,56832.2474,0,NaN,None
9,1,1,9,9,1.887451251,56836.2474,56838.1349,0,2.5024420,8
10,1,1,1,3,1.774818537,56840.6373,56842.4121,0,1.6125343,1
11,1,2,6,6,1.997872044,56844.0247,56846.0226,0,1.7248801,6
12,1,2,9,5,1.717238476,56847.7474,56849.4647,0,1.0719797,4
13,1,2,8,19,1.308440152,56850.5366,56851.8451,0,0.9425087,6
14,1,2,2,15,1.805786110,56852.7876,56854.5934,0,1.9676773,3
15,1,1,8,12,1.021287075,56856.5611,56857.5823,0,3.1302103,8
16,1,2,2,22,1.909854384,56860.7126,56862.6224,0,1.3202710,2
17,1,2,1,5,1.839366369,56863.9427,56865.7821,0,1.4596817,2
18,1,1,5,10,1.560016526,56867.2417,56868.8017,0,2.3727086,6
19,1,1,1,16,1.913778391,56871.1745,56873.0882,0,1.3854395,2
20,1,1,2,12,1.289969611,56874.4737,56875.7636,0,1.5671668,4
21,1,2,4,13,1.016902186,56877.3308,56878.3477,0,0.8715155,5
22,1,1,3,5,1.562992424,56879.2192,56880.7822,0,3.5550982,3
23,1,2,7,9,1.372844023,56884.3373,56885.7102,0,2.1296697,7
24,1,2,7,19,1.252472011,56887.8398,56889.0923,0,1.4318236,7
25,1,2,6,7,1.118598179,56890.5241,56891.6427,0,1.1332397,5
26,1,2,3,1,1.879032914,56892.7760,56894.6550,0,1.9953855,3
27,1,1,8,4,1.712366711,56896.6504,56898.3628,0,1.5458231,4
28,1,1,9,8,1.018466231,56899.9086,56900.9270,0,2.5341330,7
29,1,2,6,17,1.348901484,56903.4612,56904.8101,0,1.7848126,3
30,1,2,7,21,1.519598286,56906.5949,56908.1145,0,1.9079017,7
31,1,2,1,19,1.618057548,56910.0224,56911.6404,0,1.5283391,2
32,1,1,4,9,1.763151583,56913.1688,56914.9319,0,2.6872728,4
33,1,1,7,6,1.735873317,56917.6192,56919.3551,0,1.5706362,4
34,1,2,7,17,1.274858387,56920.9257,56922.2006,0,2.3266651,7
35,1,1,5,9,1.872549979,56924.5272,56926.3998,0,2.4575844,5
36,1,1,9,10,1.823883618,56928.8574,56930.6813,0,2.7009544,8
37,1,1,6,8,1.451998346,56933.3822,56934.8342,0,2.3098033,3
38,1,1,6,16,1.422375569,56937.1440,56938.5664,0,1.2383675,5
39,1,1,8,14,1.393426273,56939.8048,56941.1982,0,2.6909090,8
40,1,1,7,22,1.395340443,56943.8891,56945.2844,0,2.5593418,7
41,1,2,5,1,1.916255971,56947.8438,56949.7600,0,1.8677182,6
42,1,2,9,9,1.019538448,56951.6278,56952.6473,0,1.5242859,9
43,1,1,7,14,1.151426102,56954.1716,56955.3230,0,1.4869951,7
44,1,2,2,17,1.018013616,56956.8100,56957.8280,0,2.4028299,2
45,1,1,1,17,1.272621343,56960.2308,56961.5035,0,1.7640449,2
46,1,1,7,21,1.229587967,56963.2675,56964.4971,0,1.3926515,8
47,1,1,5,21,1.896529287,56965.8897,56967.7863,0,1.5603507,3
48,1,2,9,15,1.419991220,56969.3466,56970.7666,0,0.9030625,4
49,1,1,3,6,1.614680500,56971.6697,56973.2844,0,2.6352494,2
50,1,1,4,2,1.772380741,56975.9196,56977.6920,0,3.6398825,4
51,1,2,4,22,1.137844839,56981.3319,56982.4697,0,1.7695395,5
52,1,1,1,1,1.211382258,56984.2393,56985.4506,0,1.6354878,2
53,1,1,2,20,1.509867052,56987.0861,56988.5960,0,1.7639200,2
54,1,2,5,5,1.943528000,56990.3599,56992.3034,0,1.0813167,4
55,1,2,3,3,1.335805916,56993.3848,56994.7206,0,1.9895372,3
56,1,1,6,1,1.486799847,56996.7101,56998.1969,0,1.9530530,5
57,1,1,6,15,1.771178992,57000.1500,57001.9211,0,1.8899778,3
58,1,1,8,6,1.631758208,57003.8111,57005.4429,0,0.7649953,7
59,1,2,1,6,1.019763247,57006.2079,57007.2276,0,2.0536861,2
60,1,2,3,18,1.944952861,57009.2813,57011.2263,0,2.7295599,4
61,1,2,9,22,1.518350624,57013.9558,57015.4742,0,1.0369435,9
62,1,2,4,9,1.577604205,57016.5111,57018.0887,0,2.2438613,4
63,1,2,9,11,1.045343951,57020.3326,57021.3779,0,1.5201890,9
64,1,2,4,16,1.932917813,57022.8981,57024.8310,0,1.2614431,4
65,1,2,3,4,1.039766743,57026.0925,57027.1322,0,1.5781765,4
66,1,2,7,4,1.540181729,57028.7104,57030.2506,0,1.2555274,8
67,1,2,2,5,1.347466609,57031.5061,57032.8536,0,2.5512231,2
68,1,2,9,3,1.643636988,57035.4048,57037.0485,0,1.4149703,9
69,1,2,8,7,1.429916384,57038.4634,57039.8933,0,2.2238115,7
70,1,2,2,16,1.999510975,57042.1172,57044.1167,0,2.9864898,2
71,1,1,7,18,1.154430094,57047.1032,57048.2576,0,2.4665775,8
72,1,1,3,12,1.142774620,57050.7242,57051.8669,0,1.7730420,3
73,1,1,4,4,1.356638399,57053.6400,57054.9966,0,0.8956418,5
74,1,1,5,1,1.789878656,57055.8923,57057.6821,0,2.0118859,5
75,1,1,8,20,1.771772590,57059.6940,57061.4658,0,1.9896245,7
76,1,2,6,16,1.872813322,57063.4554,57065.3282,0,3.7158394,3
77,1,2,2,12,1.005728779,57069.0441,57070.0498,0,3.4746272,2
78,1,1,6,10,1.970132034,57073.5244,57075.4946,0,1.2261713,6
79,1,1,6,9,1.782290963,57076.7207,57078.5030,0,2.9574263,5
80,1,2,5,20,1.328165181,57081.4605,57082.7886,0,1.6923085,5
81,1,1,4,22,1.632039966,57084.4809,57086.1130,0,1.5324471,4
82,1,1,9,2,1.669259004,57087.6454,57089.3147,0,2.2886166,9
83,1,1,8,9,1.723096010,57091.6033,57093.3264,0,1.5445116,8
84,1,1,3,4,1.612866416,57094.8709,57096.4838,0,2.2699483,3
85,1,1,7,15,1.694452010,57098.7537,57100.4482,0,1.3041002,7
86,1,2,2,3,1.909228571,57101.7523,57103.6615,0,1.8543049,2
87,1,2,6,2,1.301434043,57105.5158,57106.8172,0,2.5149147,6
88,1,1,5,8,1.239338874,57109.3321,57110.5715,0,1.3278284,5
89,1,2,2,19,1.828418899,57111.8993,57113.7277,0,2.3901574,2
90,1,2,2,2,1.895933593,57116.1179,57118.0138,0,2.9521446,3
91,1,2,6,4,1.604439907,57120.9660,57122.5704,0,1.1398714,6
92,1,2,1,8,1.173548960,57123.7103,57124.8838,0,2.5605256,1
93,1,2,8,14,1.983485063,57127.4444,57129.4278,0,0.9170260,8
94,1,2,5,19,1.570111911,57130.3449,57131.9150,0,0.8437810,5
95,1,2,4,19,1.307674674,57132.7588,57134.0664,0,1.2269107,4
96,1,1,8,18,1.025005237,57135.2933,57136.3183,0,2.6189395,4
97,1,1,7,20,1.157348069,57138.9373,57140.0946,0,3.8285531,6
98,1,1,5,5,1.538458476,57143.9232,57145.4616,0,1.5971882,5
99,1,2,5,11,1.269026823,57147.0588,57148.3279,0,1.4671526,5
100,1,1,6,20,1.959445863,57149.7950,57151.7545,0,2.2259032,5
101,1,1,8,8,1.561785441,57153.9804,57155.5422,0,1.3762214,7
102,1,2,6,10,1.912756239,57156.9184,57158.8311,0,1.9049301,6
103,1,2,4,3,1.148650443,57160.7361,57161.8847,0,2.7127419,4
104,1,1,4,16,1.138270121,57164.5975,57165.7357,0,2.1385116,5
105,1,2,3,14,1.484523855,57167.8742,57169.3588,0,2.5405288,4
106,1,1,6,6,1.826023974,57171.8993,57173.7253,0,1.5186538,6
107,1,1,9,19,1.776429524,57175.2440,57177.0204,0,0.6185286,8
108,1,2,8,5,1.136838530,57177.6389,57178.7758,0,1.6145875,7
109,1,1,4,7,1.149998098,57180.3903,57181.5403,0,4.0000000,4
110,1,1,1,2,1.336435351,57185.5403,57186.8768,0,1.8257613,2
111,1,2,5,3,1.322366285,57188.7025,57190.0249,0,3.9383625,6
112,1,2,9,19,1.119655427,57193.9633,57195.0829,0,1.6061078,4
113,1,1,2,18,1.108841376,57196.6890,57197.7979,0,1.2122894,2
114,1,1,7,2,1.974935491,57199.0102,57200.9851,0,2.8095465,4
115,1,1,2,16,1.534372823,57203.7946,57205.3290,0,3.2375417,2
116,1,1,9,15,1.847289008,57208.5666,57210.4138,0,0.7679001,9
117,1,2,6,1,1.367184928,57211.1817,57212.5489,0,2.1531183,3
118,1,2,6,3,1.514633632,57214.7021,57216.2167,0,1.8054178,5
119,1,1,5,22,1.740772356,57218.0221,57219.7629,0,2.4085112,5
120,1,2,1,15,1.488974102,57222.1714,57223.6604,0,1.0078319,2
121,1,1,6,7,1.858312384,57224.6682,57226.5265,0,1.6110956,6
122,1,1,8,2,1.241144455,57228.1376,57229.3787,0,1.3718524,4
123,1,1,3,18,1.753962618,57230.7506,57232.5046,0,3.3617979,2
124,1,1,3,9,1.887436396,57235.8664,57237.7538,0,2.7481788,4
125,1,2,1,22,1.999930629,57240.5020,57242.5019,0,1.0693514,2
126,1,2,8,20,1.786698525,57243.5713,57245.3580,0,2.2718839,4
127,1,2,5,14,1.438739835,57247.6298,57249.0686,0,2.1143888,4
128,1,2,8,10,1.551024941,57251.1830,57252.7340,0,2.3391248,4
129,1,1,3,22,1.680562370,57255.0731,57256.7537,0,2.2655472,2
130,1,1,3,8,1.142264683,57259.0192,57260.1615,0,1.9954263,4
131,1,2,9,2,1.342068520,57262.1569,57263.4990,0,2.7065965,9
132,1,1,3,21,1.312389804,57266.2056,57267.5180,0,1.9648788,2
133,1,2,7,13,1.565565529,57269.4829,57271.0484,0,1.8476439,6
134,1,1,2,2,1.134918576,57272.8961,57274.0310,0,1.1260318,2
135,1,1,4,12,1.732496257,57275.1570,57276.8895,0,2.0796154,5
136,1,2,2,9,1.129482706,57278.9691,57280.0986,0,1.7392354,3
137,1,1,5,14,1.594111601,57281.8378,57283.4320,0,2.5788060,5
138,1,1,4,19,1.439937963,57286.0108,57287.4507,0,1.7288092,5
139,1,1,1,20,1.783689930,57289.1795,57290.9632,0,1.6620241,2
140,1,1,2,21,1.462501731,57292.6252,57294.0877,0,1.5427337,3
141,1,2,5,7,1.038694946,57295.6305,57296.6692,0,2.0748621,5
142,1,2,4,17,1.093117154,57298.7440,57299.8371,0,1.6519153,4
143,1,2,2,13,1.308919679,57301.4890,57302.7980,0,0.9559878,3
144,1,1,7,11,1.739549128,57303.7540,57305.4935,0,1.4469844,8
145,1,1,8,13,1.400054396,57306.9405,57308.3405,0,1.3147368,7
146,1,2,7,7,1.694418842,57309.6553,57311.3497,0,1.4500081,7
147,1,1,2,1,1.525951719,57312.7997,57314.3257,0,2.5609576,2
148,1,2,7,16,1.967434961,57316.8866,57318.8540,0,0.8190723,7
149,1,1,4,11,1.414877612,57319.6731,57321.0880,0,2.5963552,5
150,1,1,7,7,1.199234768,57323.6844,57324.8836,0,1.2480436,7
151,1,1,3,20,1.606961372,57326.1316,57327.7386,0,2.0225496,3
152,1,1,1,13,1.903587205,57329.7611,57331.6647,0,1.1931578,2
153,1,2,9,7,1.006512164,57332.8579,57333.8644,0,1.4043669,9
154,1,1,9,20,1.055101848,57335.2688,57336.3239,0,1.6928848,8
155,1,2,5,9,1.946937991,57338.0168,57339.9637,0,3.3213752,3
156,1,1,1,7,1.805923148,57343.2851,57345.0910,0,1.9676367,1
157,1,2,3,8,1.726016404,57347.0586,57348.7846,0,1.5568923,4
158,1,2,3,2,1.214405826,57350.3415,57351.5559,0,1.6306911,4
159,1,2,8,22,1.980109346,57353.1866,57355.1667,0,2.7398426,8
160,1,2,1,3,1.532097492,57357.9066,57359.4387,0,1.7538818,1
161,1,2,9,21,1.440946273,57361.1926,57362.6335,0,1.9615674,9
162,1,1,5,2,1.883148820,57364.5951,57366.4782,0,1.4394052,5
163,1,2,5,22,1.497395605,57367.9176,57369.4150,0,1.7913224,5
164,1,1,7,8,1.190986326,57371.2063,57372.3973,0,2.6395347,7
165,1,2,8,9,1.667613378,57375.0369,57376.7045,0,2.0839997,7
166,1,1,4,14,1.497011588,57378.7885,57380.2855,0,1.8962952,4
167,1,2,9,13,1.426907795,57382.1818,57383.6087,0,3.0543436,9
168,1,1,9,6,1.149836964,57386.6630,57387.8129,0,2.4065191,8
169,1,2,8,3,1.291326659,57390.2194,57391.5107,0,0.7730790,7
170,1,2,2,18,1.711444778,57392.2838,57393.9952,0,1.9081793,2
171,1,2,8,1,1.629165347,57395.9034,57397.5326,0,0.8674432,8
172,1,1,5,3,1.172284218,57398.4000,57399.5723,0,2.9420687,3
173,1,2,3,17,1.808350256,57402.5144,57404.3227,0,2.1339967,3
174,1,2,3,21,1.940026852,57406.4567,57408.3968,0,2.3052204,3
175,1,1,8,7,1.878250575,57410.7020,57412.5802,0,1.3522266,8
176,1,1,9,1,1.262525671,57413.9325,57415.1950,0,1.3156568,4
177,1,1,7,3,1.679086262,57416.5106,57418.1897,0,1.9289276,6
178,1,2,8,2,1.369463027,57420.1187,57421.4881,0,2.5936951,7
179,1,1,9,22,1.244738588,57424.0818,57425.3266,0,1.3129277,8
180,1,2,4,12,1.784436696,57426.6395,57428.4239,0,1.8368782,3
181,1,1,4,6,1.241412760,57430.2608,57431.5022,0,1.5098104,4
182,1,2,8,4,1.399282558,57433.0120,57434.4113,0,1.7810029,8
183,1,1,4,15,1.297962477,57436.1923,57437.4903,0,1.6612469,3
184,3,1,4,3,1.544227344,57439.1515,57440.6957,0,NaN,None
185,1,1,3,1,1.028776153,57444.6957,57445.7245,0,0.6045311,4
186,1,2,2,4,1.391548693,57446.3290,57447.7206,0,3.7144644,3
187,1,2,3,10,1.976993604,57451.4351,57453.4121,0,1.8386664,4
188,1,1,8,11,1.612917615,57455.2507,57456.8636,0,1.6003583,8
189,1,2,3,13,1.905940497,57458.4640,57460.3699,0,1.7556377,2
190,1,1,7,12,1.706225444,57462.1256,57463.8318,0,1.1772999,7
191,1,2,1,1,1.459419423,57465.0091,57466.4685,0,1.3925740,1
192,3,2,8,11,1.230319046,57467.8611,57469.0914,0,NaN,None
193,1,1,3,15,1.198508779,57473.0914,57474.2899,0,1.1193441,3
194,1,1,2,17,1.814973301,57475.4093,57477.2242,0,1.3863353,2
195,1,1,8,15,1.694655861,57478.6106,57480.3052,0,1.8019809,8
196,1,2,4,4,1.544058279,57482.1072,57483.6513,0,3.5558517,4
197,1,1,7,1,1.203072668,57487.2071,57488.4102,0,3.4938819,7
198,1,2,6,20,1.152800462,57491.9041,57493.0569,0,2.0200376,6
199,1,1,6,19,1.437094098,57495.0769,57496.5140,0,2.5222909,5
200,1,2,9,20,1.694302450,57499.0363,57500.7306,0,3.5145842,8
201,1,1,5,15,1.651806305,57504.2452,57505.8970,0,2.6076154,4
202,1,1,3,10,1.991013937,57508.5046,57510.4956,0,1.7818709,3
203,1,1,7,19,1.542862583,57512.2775,57513.8204,0,1.9301912,7
204,1,2,7,14,1.978564914,57515.7505,57517.7291,0,1.3925385,7
205,1,2,3,5,1.550519652,57519.1216,57520.6722,0,3.1753549,4
206,1,2,6,5,1.739176729,57523.8475,57525.5867,0,0.8904811,6
207,1,2,2,14,1.300856191,57526.4772,57527.7780,0,1.5714956,2
208,1,2,1,4,1.254584031,57529.3495,57530.6041,0,1.9798670,2
209,1,1,2,9,1.927855339,57532.5840,57534.5118,0,3.1703813,3
210,1,2,1,7,1.679032386,57537.6822,57539.3613,0,1.9836322,2
211,1,1,8,21,1.940221432,57541.3449,57543.2851,0,2.4498450,8
212,1,1,7,9,1.783187406,57545.7350,57547.5181,0,3.1222914,6
213,1,1,3,13,1.918445201,57550.6404,57552.5589,0,2.4354344,2
214,1,2,9,4,1.830926041,57554.9943,57556.8252,0,1.5773332,9
215,1,1,5,20,1.897162082,57558.4026,57560.2997,0,2.2935257,5
216,1,2,8,21,1.682524694,57562.5933,57564.2758,0,1.7532141,7
217,1,2,4,1,1.012770412,57566.0290,57567.0418,0,1.8753167,4
218,1,2,6,21,1.888522428,57568.9171,57570.8056,0,2.0311586,6
219,1,1,8,17,1.721952092,57572.8368,57574.5587,0,1.7408161,4
220,1,1,7,4,1.937579450,57576.2995,57578.2371,0,1.5514412,6
221,3,1,2,11,1.735024115,57579.7886,57581.5236,0,NaN,None
222,1,1,5,16,1.578413975,57585.5236,57587.1020,0,2.1780669,5
223,1,2,7,10,1.083849426,57589.2801,57590.3639,0,0.8656601,7
224,1,1,4,10,1.363130599,57591.2296,57592.5927,0,3.4069314,5
225,1,1,4,17,1.120364998,57595.9996,57597.1200,0,1.3121259,4
226,1,2,9,17,1.104716302,57598.4321,57599.5368,0,3.6625944,9
227,1,1,5,11,1.202414623,57603.1994,57604.4018,0,2.0507943,5
228,1,2,5,18,1.125599762,57606.4526,57607.5782,0,1.9708994,5
229,1,2,7,18,1.851068812,57609.5491,57611.4002,0,4.0000000,7
230,1,2,7,12,1.854203365,57615.4002,57617.2544,0,1.0672777,7
231,1,1,3,16,1.297348496,57618.3217,57619.6190,0,1.0685457,4
232,1,2,6,9,1.264571159,57620.6876,57621.9522,0,2.1461168,6
233,1,2,8,15,1.536858352,57624.0983,57625.6351,0,1.4027594,7
234,1,2,7,15,1.480521621,57627.0379,57628.5184,0,1.3358720,7
235,1,1,6,2,1.412112402,57629.8543,57631.2664,0,2.5191149,5
236,1,2,7,1,1.633192475,57633.7855,57635.4187,0,1.8015542,3
237,1,1,8,10,1.956860048,57637.2203,57639.1771,0,2.3684468,7
238,1,1,1,5,1.762916670,57641.5456,57643.3085,0,1.0443976,1
239,1,2,9,18,1.137514645,57644.3529,57645.4904,0,2.2225410,9
240,1,2,6,19,1.155164431,57647.7129,57648.8681,0,3.1910162,6
241,1,2,3,16,1.487383568,57652.0591,57653.5465,0,2.0541650,4
242,1,2,3,19,1.705348991,57655.6007,57657.3060,0,1.6064739,3
243,1,1,6,12,1.620721875,57658.9125,57660.5332,0,2.4930559,6
244,1,2,5,10,1.337303164,57663.0263,57664.3636,0,2.3822770,3
245,1,1,7,17,1.336823005,57666.7458,57668.0827,0,1.9682837,6
246,1,1,2,8,1.725506438,57670.0510,57671.7765,0,2.2439926,2
247,1,1,5,7,1.532474347,57674.0204,57675.5529,0,1.9877100,5
248,1,2,4,8,1.712443316,57677.5406,57679.2531,0,2.2816954,5
249,1,1,8,16,1.286906846,57681.5348,57682.8217,0,1.5797326,8
250,1,2,9,10,1.414012876,57684.4014,57685.8154,0,2.2502296,8
251,1,2,4,7,1.424582335,57688.0657,57689.4902,0,3.7988852,4
252,1,1,7,16,1.386967605,57693.2891,57694.6761,0,2.3039788,7
253,1,2,6,13,1.370625859,57696.9801,57698.3507,0,2.2744591,5
254,1,1,2,7,1.451119729,57700.6252,57702.0763,0,2.3626796,2
255,1,2,4,11,1.105516705,57704.4390,57705.5445,0,2.7975558,5
256,1,1,1,10,1.360487107,57708.3420,57709.7025,0,2.3093941,2
257,1,2,5,8,1.474503573,57712.0119,57713.4864,0,2.8483166,6
258,1,1,3,11,1.748802834,57716.3347,57718.0835,0,1.1822254,3
259,1,2,7,20,1.241227231,57719.2658,57720.5070,0,2.2986124,7
260,1,2,8,12,1.579418131,57722.8056,57724.3850,0,3.1430383,7
261,1,1,2,13,1.866978107,57727.5281,57729.3950,0,1.7297473,2
262,1,2,7,6,1.270384040,57731.1248,57732.3952,0,2.0438446,8
263,1,2,6,12,1.717754208,57734.4390,57736.1568,0,1.7948582,3
264,1,2,2,11,1.105033345,57737.9516,57739.0567,0,2.9266353,2
265,1,2,4,15,1.050823059,57741.9833,57743.0341,0,1.7687153,5
266,1,2,1,2,1.617038997,57744.8028,57746.4199,0,2.3269445,2
267,1,2,2,20,1.659814679,57748.7468,57750.4066,0,3.9405177,3
268,1,2,1,16,1.879462922,57754.3471,57756.2266,0,3.6163819,2
269,1,2,9,6,1.475107574,57759.8430,57761.3181,0,1.9980686,9
270,1,1,3,14,1.519988770,57763.3162,57764.8361,0,1.7985755,3
271,1,2,8,6,1.574100396,57766.6347,57768.2088,0,3.3542649,8
272,1,1,6,17,1.967411689,57771.5631,57773.5305,0,2.1204038,3
273,1,1,3,3,1.508417767,57775.6509,57777.1593,0,2.2001860,2
274,1,1,3,19,1.625395869,57779.3595,57780.9849,0,1.5917736,3
275,1,2,6,11,1.412258332,57782.5767,57783.9889,0,1.0214981,5
276,1,2,2,21,1.767436956,57785.0104,57786.7779,0,2.0185618,2
277,1,1,2,3,1.978140177,57788.7964,57790.7746,0,1.8765846,3
278,1,2,8,13,1.127204631,57792.6512,57793.7784,0,2.2429125,8
279,1,1,6,11,1.731224330,57796.0213,57797.7525,0,1.7138373,6
280,1,1,4,8,1.124796430,57799.4663,57800.5911,0,1.0871245,3
281,1,2,1,21,1.279940673,57801.6783,57802.9582,0,1.3573692,2
282,1,1,1,6,1.711920025,57804.3156,57806.0275,0,1.0831367,2
283,1,2,3,7,1.473057066,57807.1106,57808.5837,0,2.2758034,4
284,1,1,5,19,1.536962000,57810.8595,57812.3964,0,2.1064664,5
285,1,1,4,13,1.554252449,57814.5029,57816.0572,0,2.9219654,4
286,1,1,5,6,1.283937930,57818.9791,57820.2631,0,1.5174202,5
287,1,1,8,5,1.788658555,57821.7805,57823.5691,0,1.8375488,7
288,1,1,9,18,1.444303942,57825.4067,57826.8510,0,3.3667532,8
289,1,2,8,16,1.107327336,57830.2178,57831.3251,0,2.3010097,7
290,1,1,5,18,1.376227513,57833.6261,57835.0023,0,1.1721211,5
291,1,2,9,16,1.776648144,57836.1744,57837.9511,0,1.0689846,8
292,1,2,5,12,1.379092493,57839.0201,57840.3992,0,4.0000000,3
293,1,1,1,15,1.495498410,57844.3992,57845.8947,0,1.8147945,1
294,1,1,2,15,1.071134980,57847.7095,57848.7806,0,3.5086773,3
295,1,1,8,3,1.125485782,57852.2893,57853.4148,0,1.7629244,8
296,1,2,5,13,1.305181620,57855.1777,57856.4829,0,1.6320214,5
297,1,2,3,20,1.041667716,57858.1149,57859.1566,0,2.7262585,4
298,1,1,7,5,1.490270293,57861.8828,57863.3731,0,1.6168122,8
299,1,1,8,19,1.480149924,57864.9899,57866.4700,0,2.9697459,7
300,1,2,4,6,1.958771877,57869.4398,57871.3986,0,1.0722901,3
301,1,1,1,21,1.667416211,57872.4709,57874.1383,0,2.9971661,2
302,1,1,2,5,1.273296344,57877.1354,57878.4087,0,0.9952013,3
303,1,2,1,20,1.719126702,57879.4039,57881.1231,0,2.5632942,3
304,1,1,9,7,1.848717274,57883.6864,57885.5351,0,1.7333645,9
305,1,2,4,18,1.718014088,57887.2684,57888.9864,0,2.1327036,4
306,1,2,5,15,1.655567592,57891.1192,57892.7747,0,3.8134797,5
307,1,2,3,9,1.639520135,57896.5882,57898.2277,0,2.9011560,4
308,1,1,3,17,1.197351534,57901.1289,57902.3262,0,2.5481015,4
309,1,2,7,3,1.978692424,57904.8743,57906.8530,0,1.1265090,8
310,1,1,9,4,1.821653394,57907.9795,57909.8012,0,1.7415744,8
311,1,2,1,13,1.286202864,57911.5428,57912.8290,0,2.7738607,1
312,1,1,5,13,1.785495109,57915.6028,57917.3883,0,2.3322331,5
313,1,1,9,17,1.177535918,57919.7205,57920.8981,0,0.8757025,8
314,1,1,1,19,1.717288369,57921.7738,57923.4911,0,3.8740777,1
315,1,1,9,3,1.473982597,57927.3652,57928.8391,0,1.5145820,4
316,1,1,4,18,1.973188244,57930.3537,57932.3269,0,2.7838866,3
317,1,1,9,16,1.013575493,57935.1108,57936.1244,0,2.1682113,8
318,1,2,6,8,1.967001402,57938.2926,57940.2596,0,0.8313416,6
319,1,1,1,22,1.261254491,57941.0909,57942.3522,0,2.9728369,2
320,1,1,2,10,1.395705527,57945.3250,57946.7207,0,2.8515388,3
321,1,2,1,12,1.877480684,57949.5723,57951.4497,0,2.0150917,2
322,1,1,9,13,1.599339999,57953.4648,57955.0642,0,2.3017416,9
323,1,2,7,2,1.212517819,57957.3659,57958.5784,0,2.2099436,6
324,1,2,2,6,1.349246230,57960.7884,57962.1376,0,1.8221853,2
325,1,2,5,6,1.108669132,57963.9598,57965.0685,0,2.9191723,5
326,1,1,8,1,1.126516217,57967.9876,57969.1142,0,2.4763857,7
327,1,2,6,18,1.191448953,57971.5905,57972.7820,0,1.0884020,6
328,1,1,1,14,1.442226574,57973.8704,57975.3126,0,1.1086060,1
329,1,2,4,2,1.161722116,57976.4212,57977.5830,0,2.3790896,3
330,1,1,1,4,1.640324691,57979.9620,57981.6024,0,0.9862061,2
331,1,2,4,5,1.256569056,57982.5886,57983.8451,0,4.0000000,4
332,1,2,9,14,1.976471514,57987.8451,57989.8216,0,1.5926968,9
333,1,1,6,18,1.821888870,57991.4143,57993.2362,0,1.3376785,3
334,1,1,7,13,1.458951910,57994.5739,57996.0328,0,2.4395013,7
335,1,1,3,7,1.603919879,57998.4723,58000.0763,0,2.6170155,3
336,1,2,4,21,1.831932784,58002.6933,58004.5252,0,2.3741390,4
337,1,2,6,22,1.313478183,58006.8993,58008.2128,0,2.5954963,5
338,1,2,1,14,1.928463821,58010.8083,58012.7368,0,2.2590663,1
339,1,2,1,17,1.028170959,58014.9958,58016.0240,0,1.0941467,2
340,1,2,3,12,1.168630853,58017.1182,58018.2868,0,0.9038525,4
341,1,2,2,1,1.060618679,58019.1906,58020.2513,0,3.4658291,3
342,1,2,9,1,1.744474511,58023.7171,58025.4616,0,3.0127051,9
343,1,2,7,22,1.266622763,58028.4743,58029.7409,0,3.5138054,7
344,1,2,2,10,1.067553567,58033.2547,58034.3223,0,1.8210643,2
345,1,2,6,14,1.725953468,58036.1433,58037.8693,0,3.1554113,6
346,1,1,1,8,1.105434592,58041.0247,58042.1301,0,1.2121055,1
347,1,2,5,17,1.506370792,58043.3422,58044.8486,0,1.0375073,5
348,1,1,6,3,1.173868822,58045.8861,58047.0600,0,1.1293878,6
349,1,2,5,2,1.977194220,58048.1894,58050.1666,0,1.3949582,5
350,1,2,5,21,1.729605796,58051.5615,58053.2911,0,2.2783584,3
351,1,1,6,14,1.895823675,58055.5695,58057.4653,0,3.3996916,3
352,1,2,8,17,1.479544696,58060.8650,58062.3445,0,2.3167588,7
353,1,1,6,13,1.286526997,58064.6613,58065.9478,0,3.2834222,5
354,1,2,2,7,1.302167767,58069.2312,58070.5334,0,2.8497249,2
355,1,2,5,16,1.493061549,58073.3831,58074.8762,0,3.9629310,4
356,1,1,1,12,1.847733623,58078.8391,58080.6869,0,2.9784233,1
357,1,2,6,15,1.627239461,58083.6653,58085.2925,0,4.0000000,6
358,1,2,8,8,1.040389620,58089.2925,58090.3329,0,1.3381342,4
359,1,1,4,5,1.724121849,58091.6710,58093.3952,0,3.1577954,2
360,1,2,3,22,1.223316728,58096.5530,58097.7763,0,0.7481606,3
361,1,1,5,12,1.305929923,58098.5244,58099.8304,0,0.9985460,5
362,1,2,5,4,1.694888776,58100.8289,58102.5238,0,4.0000000,5
363,1,1,2,19,1.161622888,58106.5238,58107.6854,0,1.0791135,3
364,1,2,7,11,1.091817264,58108.7645,58109.8564,0,1.4387923,4
365,1,2,3,15,1.415513071,58111.2952,58112.7107,0,2.8423153,3
366,1,1,5,17,1.572570420,58115.5530,58117.1256,0,2.3201127,5
367,1,1,9,12,1.983456814,58119.4457,58121.4291,0,1.4363314,8
368,1,2,1,9,1.001431827,58122.8655,58123.8669,0,1.1492133,1
369,1,1,4,20,1.574346837,58125.0161,58126.5904,0,3.0937434,4
370,1,2,9,12,1.733610864,58129.6842,58131.4178,0,2.3602607,9
371,1,1,6,22,1.570410035,58133.7781,58135.3485,0,2.5161960,5
372,1,1,1,11,1.999955498,58137.8647,58139.8646,0,2.1959614,1
373,1,1,6,21,1.715587717,58142.0606,58143.7762,0,1.8766310,6
374,1,2,9,8,1.636714487,58145.6528,58147.2895,0,4.0000000,8
375,1,1,4,1,1.776040498,58151.2895,58153.0656,0,1.3615880,3
376,1,1,3,2,1.326742451,58154.4271,58155.7539,0,3.0579260,4
377,1,1,9,5,1.756922785,58158.8118,58160.5687,0,2.4196080,9
378,1,2,1,18,1.195629631,58162.9883,58164.1840,0,1.4779529,1
379,1,1,2,14,1.015457779,58165.6619,58166.6774,0,1.3739528,3
380,1,1,1,18,1.950211452,58168.0513,58170.0015,0,1.9989917,3
381,1,2,1,11,1.964793006,58172.0005,58173.9653,0,2.3312721,2
382,1,2,7,5,1.983694593,58176.2966,58178.2803,0,2.2199214,8
383,1,1,8,22,1.473726387,58180.5002,58181.9739,0,1.9284206,7
384,1,2,3,6,1.068929234,58183.9024,58184.9713,0,1.8093634,2
385,1,1,9,14,1.251183879,58186.7807,58188.0318,0,1.4089473,9
386,1,2,7,8,1.987974523,58189.4408,58191.4288,0,1.9789132,7
387,1,1,9,21,1.146565011,58193.4077,58194.5542,0,2.1692316,8
388,1,1,7,10,1.611816396,58196.7235,58198.3353,0,2.4597655,7
389,1,1,6,5,1.295592699,58200.7951,58202.0907,0,2.3578719,5
390,1,1,2,4,1.708013234,58204.4485,58206.1565,0,1.6672063,2
391,1,1,6,4,1.883865345,58207.8237,58209.7076,0,1.9290186,6
392,1,2,3,11,1.595541512,58211.6366,58213.2322,0,2.0662441,3
393,1,1,2,22,1.141123724,58215.2984,58216.4395,0,3.1516991,3
394,1,2,4,10,1.491266888,58219.5912,58221.0825,0,2.0299036,5
395,1,2,1,10,1.525425477,58223.1124,58224.6378,0,1.2535244,2
396,1,2,2,8,1.018393694,58225.8914,58226.9097,0,3.6738530,3
