ID,State,Position ID,Morph Step,Face Person,ITI,Trial_Onset,Stim_Onset,Stim_Offset,RT,Answer
1,1,1,9,7,1.72117389167183,5209.3721107,5211.1030883,0,1.68277779999971,3
2,1,1,8,11,1.27591728660917,5212.7887557,5214.0761574,0,1.36407670000062,3
3,1,2,5,22,1.76882020104839,5215.4417557,5217.2211533,0,2.22704169999997,6
4,1,1,6,9,1.79181340595932,5219.4486201,5221.251191,0,1.71687440000005,6
5,1,1,3,22,1.9012437653149,5222.9697559,5224.8802839,0,2.36772670000028,8
6,1,1,3,20,1.09475607358465,5227.2481256,5228.3571571,0,1.48299760000009,8
7,1,2,1,13,1.87989143672495,5229.8402636,5231.7292176,0,1.23094450000008,7
8,1,1,2,14,1.28652585536401,5232.960266,5234.2587803,0,1.66917600000033,7
9,1,1,8,20,1.20644658645986,5235.9280311,5237.1447893,0,2.29534719999992,2
10,1,1,8,8,1.3988390778978,5239.4402407,5240.849757,0,1.31844550000005,3
11,1,1,7,13,1.7167565253377,5242.1682699,5243.8954854,0,2.04063839999981,5
12,1,2,3,14,1.12837932689256,5245.9362288,5247.0743333,0,2.25366899999972,4
13,1,1,4,15,1.7942511794133,5249.3281089,5251.1325519,0,2.50761919999968,4
14,1,2,6,22,1.91765495224819,5253.6402973,5255.5685963,0,1.01515050000035,3
15,1,1,7,4,1.60229231943182,5256.5838022,5258.1958207,0,2.98032810000041,7
16,1,1,6,6,1.28163130116074,5261.1763278,5262.4684315,0,1.98743560000003,4
17,1,1,5,16,1.99575905016576,5264.4559718,5266.4624783,0,3.02551959999983,3
18,1,1,7,16,1.45503154811525,5269.4881029,5270.9538306,0,2.17431719999968,6
19,1,1,9,20,1.82666365167387,5273.1282536,5274.9658273,0,1.09821760000068,7
20,1,2,5,18,1.44902896594687,5276.0641492,5277.5237588,0,2.31641190000028,5
21,1,1,4,1,1.62975844243136,5279.8402882,5281.4810063,0,1.84695909999937,3
22,1,2,1,21,1.38366426097841,5283.3280768,5284.7223876,0,1.70965570000044,1
23,1,1,1,18,1.43757389998357,5286.4322121,5287.8802314,0,1.56789859999935,2
24,1,2,7,21,1.87201545894533,5289.448246,5291.3307251,0,2.79713640000045,7
25,1,2,6,14,1.15471799698151,5294.1280044,5295.299357,0,1.42045260000032,4
26,1,2,8,19,1.96116352811198,5296.7199632,5298.6910438,0,1.98891249999997,6
27,1,2,1,2,1.86589083083406,5300.6800181,5302.5557957,0,1.81208330000027,3
28,1,2,6,17,1.43265072692348,5304.3679872,5305.8113797,0,1.40453980000075,4
29,1,1,7,3,1.05342966039755,5307.2159841,5308.2793682,0,2.15279420000024,5
30,1,2,6,8,1.08729299611016,5310.432281,5311.5294108,0,1.19197489999988,5
31,1,2,4,17,1.58653158078964,5312.7214864,5314.3187391,0,1.4334558999999,4
32,1,1,9,17,1.08497183467329,5315.7523333,5316.8476747,0,2.4562563999998,7
33,1,2,9,22,1.33655382294431,5319.3040366,5320.6511206,0,1.4931716000001,8
34,1,2,4,15,1.56308989881518,5322.1444309,5323.7180876,0,1.62590660000023,3
35,1,2,4,10,1.05338890013957,5325.3440523,5326.4074385,0,0.880455099999381,4
36,1,1,5,11,1.71863764667184,5327.2880064,5329.0173955,0,1.11867669999992,4
37,1,1,8,7,1.67867878853456,5330.1361837,5331.8249302,0,1.83103039999969,7
38,1,1,3,2,1.71523562836544,5333.6560965,5335.3821051,0,3.39382309999928,3
39,1,2,6,4,1.56305410489308,5338.7760373,5340.3495217,0,1.78672689999985,6
40,1,1,2,13,1.48269841839048,5342.1363665,5343.6292488,0,3.6747919999998,3
41,1,2,2,3,1.76883813149237,5347.3041473,5349.0829533,0,2.57314580000002,2
42,1,2,1,16,1.08463323254886,5351.6562337,5352.7510583,0,1.25695910000013,1
43,1,1,4,14,1.04255124187738,5354.0081354,5355.0605283,0,1.66749339999933,4
44,1,2,9,12,1.22949928074222,5356.7281227,5357.9697191,0,2.40620170000057,7
45,1,2,8,7,1.10693148870504,5360.3760246,5361.4939921,0,1.8741426000006,8
46,1,1,2,7,1.60991290758428,5363.3682437,5364.9881454,0,2.87559090000013,2
47,1,2,6,12,1.43320015252178,5367.8638436,5369.3080808,0,1.95619899999929,5
48,1,1,4,21,1.73000122814722,5371.2643981,5373.0040945,0,1.71601370000008,5
49,1,1,6,2,1.84787125341811,5374.7202121,5376.5784847,0,1.3015790999998,5
50,1,2,4,14,1.06683439320403,5377.8802209,5378.9577743,0,2.76203879999957,4
51,1,1,7,20,1.68548533889939,5381.7199295,5383.4156941,0,1.54442469999958,6
52,1,2,3,9,1.82278559785464,5384.9602215,5386.7939006,0,1.99014310000075,3
53,1,1,9,2,1.34681122700066,5388.7841515,5390.1412334,0,2.93052910000006,6
54,1,2,4,18,1.31204372539161,5393.0718875,5394.3948807,0,2.50918249999995,5
55,1,1,4,6,1.12811082936239,5396.9041671,5398.0427232,0,1.23725990000003,5
56,1,1,6,19,1.32281006583518,5399.2800821,5400.6133812,0,1.4906331000002,5
57,1,2,8,6,1.68699969592742,5402.1041381,5403.802416,0,1.38136119999945,7
58,1,1,2,19,1.73568521874723,5405.183886,5406.9300679,0,1.74996110000029,4
59,1,2,7,7,1.94847189279069,5408.6801362,5410.6389575,0,1.26510710000002,6
60,1,2,7,19,1.44177930304276,5411.9041736,5413.3567623,0,3.05928130000029,5
61,1,2,3,18,1.51937701042486,5416.4161447,5417.9463626,0,2.76571050000075,4
62,1,2,8,11,1.62833946937736,5420.7121809,5422.3513793,0,1.52045469999939,6
63,1,2,9,19,1.40822023510855,5423.8719394,5425.2907715,0,1.60521679999965,6
64,1,2,1,12,1.34012832057089,5426.8960937,5428.2472741,0,1.38480069999969,3
65,1,2,9,20,1.39605286411648,5429.6321773,5431.0392768,0,1.36880209999981,7
66,1,2,1,17,1.49829881112801,5432.408187,5433.9166673,0,1.97932120000041,2
67,1,1,5,5,1.91040587093913,5435.8961142,5437.8170342,0,1.05479749999995,5
68,1,1,8,18,1.10883863707595,5438.8719228,5439.9913602,0,1.5204102000007,6
69,1,2,5,17,1.5216000306634,5441.511848,5443.043294,0,2.01271829999951,4
70,1,1,6,7,1.18278610051817,5445.0561369,5446.2497022,0,0.842595699999947,5
71,1,2,4,8,1.81885951574079,5447.0927387,5448.9219727,0,0.869841400000041,5
72,1,2,5,2,1.77721909908437,5449.7919253,5451.5800896,0,1.08389230000012,5
73,1,1,9,3,1.5560873984054,5452.6640996,5454.2306669,0,1.29794899999979,7
74,1,2,7,5,1.47078690983122,5455.5288465,5457.011641,0,1.32444080000005,6
75,1,1,3,11,1.43766977141824,5458.3361839,5459.7847053,0,1.11155750000034,4
76,1,2,8,16,1.37054860718282,5460.8963733,5462.2769504,0,2.46667609999986,8
77,1,1,2,22,1.13283316109669,5464.7436977,5465.8861223,0,1.54565219999949,2
78,1,1,7,14,1.297972312434,5467.4319132,5468.7403972,0,1.6676693999998,7
79,1,1,9,21,1.30976019993404,5470.4081753,5471.7278694,0,1.47174440000072,8
80,1,1,3,17,1.23783643063748,5473.199673,5474.4482124,0,1.23179720000007,4
81,1,1,5,10,1.27218957327894,5475.680113,5476.9621587,0,2.34987649999948,4
82,1,1,9,19,1.5778058041843,5479.3121404,5480.9001984,0,2.25191440000071,7
83,1,2,7,8,1.03467360768124,5483.1522561,5484.197797,0,2.00238919999993,6
84,1,2,1,14,1.39677722024998,5486.200292,5487.6070689,0,1.54503079999995,3
85,1,2,8,3,1.58223730568578,5489.1522027,5490.7507796,0,1.15310669999963,6
86,1,2,2,5,1.59721653109616,5491.9039917,5493.5111693,0,3.27290400000038,3
87,1,1,8,13,1.3619430051468,5496.7841816,5498.1575773,0,1.8581867999992,6
88,1,1,4,8,1.90845896432776,5500.0158795,5501.9343712,0,1.08166729999994,5
89,1,1,3,7,1.67823405354315,5503.0161412,5504.7050111,0,3.75894410000001,4
90,1,1,5,2,1.6981993847175,5508.4640766,5510.1732765,0,0.738761000000522,5
91,1,2,5,15,1.2685776911286,5510.912166,5512.1912717,0,1.36866880000071,4
92,1,2,6,7,1.48679534082897,5513.5600493,5515.0574194,0,1.36655679999967,5
93,1,1,5,20,1.51753588853755,5516.4240893,5517.9528637,0,1.0308443999993,5
94,1,1,4,22,1.25239942397969,5518.9837778,5520.2463692,0,1.24943979999989,4
95,1,1,4,13,1.83709198182544,5521.4959169,5523.3419022,0,3.81024969999999,5
96,1,2,5,13,1.64625815712874,5527.1523013,5528.8097578,0,1.03820640000049,5
97,1,1,2,18,1.08934097394789,5529.8480861,5530.9472033,0,1.38886079999975,2
98,1,1,2,9,1.83151032320242,5532.3361814,5534.1781911,0,2.46191840000029,1
99,1,2,1,22,1.46959499843918,5536.6402668,5538.1209038,0,1.04699250000067,1
100,1,2,4,6,1.95433616118134,5539.1680001,5541.1332963,0,1.41872989999956,4
101,1,1,5,1,1.04118020572234,5542.5521363,5543.6042623,0,1.54775019999943,4
102,1,1,5,22,1.1159580595458,5545.1521526,5546.2784016,0,1.48962389999997,5
103,1,1,1,14,1.04663986744631,5547.7681311,5548.8261898,0,2.07783620000009,2
104,1,2,1,19,1.48088896846299,5550.9041283,5552.3958999,0,2.20400550000068,2
105,1,2,2,18,1.0134533955061,5554.6000108,5555.6237691,0,2.61621910000031,2
106,1,1,5,9,1.49707049957585,5558.2400905,5559.7480859,0,2.04349160000038,4
107,1,2,1,7,1.0270494997863,5561.7916449,5562.8287792,0,2.39524590000019,2
108,1,1,8,22,1.12277503728933,5565.2241311,5566.3591324,0,3.88879030000044,8
109,1,2,7,2,1.1789269775469,5570.2480317,5571.4383162,0,1.48170889999983,6
110,1,2,7,9,1.08173443064092,5572.9201275,5574.0132921,0,1.18672579999929,7
111,1,2,7,17,1.37861642066395,5575.2001349,5576.5889228,0,1.78684340000018,7
112,1,2,2,21,1.17641017785329,5578.3758932,5579.5623445,0,1.61406759999954,3
113,1,1,8,2,1.99885294611784,5581.1765982,5583.1866547,0,1.29335689999971,7
114,1,2,5,16,1.60961926599784,5584.4801214,5586.0997223,0,0.924223499999243,5
115,1,2,1,1,1.44963767177331,5587.0240499,5588.4846477,0,1.3874323,2
116,1,1,6,18,1.2648332794467,5589.8721885,5591.1482363,0,1.60346890000073,5
117,1,1,3,12,1.63371383107575,5592.7518412,5594.3954319,0,3.78837009999916,3
118,1,2,3,17,1.55666233501024,5598.1838627,5599.7507982,0,1.3050776,2
119,1,1,1,11,1.24977680118642,5601.0559833,5602.317281,0,1.65065310000045,1
120,1,1,1,20,1.81356395283814,5603.9680371,5605.7920605,0,1.09576240000024,1
121,1,2,3,21,1.27654733808662,5606.8879304,5608.1752198,0,1.8645020999993,3
122,1,1,2,10,1.49185685544996,5610.0397869,5611.5422305,0,2.77756539999973,2
123,1,1,3,21,1.67047676582698,5614.3199185,5616.001246,0,2.15864920000058,3
124,1,1,4,2,1.19206889789019,5618.160001,5619.3633462,0,0.860391799999888,5
125,1,1,9,5,1.76663318903982,5620.2238487,5622.0010389,0,1.44665979999991,7
126,1,1,6,12,1.84300951752475,5623.4477835,5625.3017284,0,1.05805070000042,6
127,1,2,4,12,1.31532311402329,5626.3598836,5627.6862471,0,0.818104399999356,6
128,1,2,2,14,1.19441079416439,5628.5044195,5629.7090077,0,2.03472169999986,5
129,1,2,2,7,1.59921432540924,5631.7437843,5633.3529821,0,2.9989373999997,1
130,1,2,7,13,1.03324346957101,5636.3520261,5637.3954902,0,1.67640550000033,6
131,1,2,5,1,1.35754740436359,5639.0720205,5640.4400123,0,1.48005180000018,4
132,1,1,3,16,1.99621579915175,5641.9201747,5643.9270059,0,3.64096280000012,3
133,1,2,3,2,1.15814856353492,5770.5218352,5771.6928927,0,2.17907990000003,4
134,1,2,9,11,1.33029007319779,5773.8741122,5775.2151406,0,2.66496610000013,7
135,1,1,2,3,1.2692451912351,5777.8802359,5779.1603765,0,2.35159000000021,3
136,1,2,7,6,1.77986740430518,5781.5120843,5783.3024573,0,2.66549409999971,6
137,1,2,8,4,1.85146018134317,5785.9680618,5787.830227,0,1.10552019999977,7
138,1,1,5,17,1.7549352171304,5788.9358993,5790.7011165,0,1.97864939999999,5
139,1,1,9,6,1.3221364191588,5792.6798844,5794.0128661,0,3.0826804999997,7
140,1,1,7,11,1.03947660534511,5797.0956058,5798.1452588,0,2.06249250000019,6
141,1,1,3,4,1.64372012532266,5800.2078572,5801.862577,0,1.37739400000009,4
142,1,2,4,21,1.92926222782522,5803.2400844,5805.1798754,0,1.86801490000016,5
143,1,1,6,3,1.45682540735616,5807.0479902,5808.5157437,0,0.988146499999857,5
144,1,1,1,13,1.45170852525128,5809.5039927,5810.964896,0,1.7869584,3
145,1,1,7,2,1.60977411119134,5812.7519596,5814.3711064,0,1.69284500000049,6
146,1,2,5,6,1.17432711254347,5816.0640568,5817.2493896,0,1.39051220000056,4
147,1,2,6,10,1.18555902381875,5818.6400039,5819.8363818,0,1.84361929999977,5
148,1,2,7,10,1.45659612450145,5821.6801095,5823.1480134,0,1.06794660000014,5
149,3,1,8,10,1.54662179692945,5824.2160673,5825.7727096,0,NaN,None
150,1,2,3,1,1.17568132693325,5829.7733141,5830.9590986,0,1.65666770000007,3
151,1,2,6,21,1.87001353909909,5832.6158991,5834.4955488,0,1.75230270000066,5
152,1,2,2,17,1.55660179784829,5836.2479783,5837.8154916,0,1.76860419999957,2
153,1,1,9,15,1.37642003509379,5839.5842031,5840.9711194,0,2.0686655999998,9
154,1,2,2,12,1.47760867342479,5843.039888,5844.527241,0,1.4806636000003,2
155,1,2,7,12,1.99055912996104,5846.0079878,5848.0086171,0,2.73535029999948,5
156,1,2,6,15,1.90878197419754,5850.7440763,5852.6633537,0,1.4004746999999,5
157,1,1,8,16,1.26041590405877,5854.0639366,5855.3347827,0,1.52892299999985,7
158,1,1,2,16,1.51171544535258,5856.8638098,5858.3867081,0,2.18906870000046,3
159,1,1,7,12,1.55662704456178,5860.5759262,5862.1428089,0,2.68910419999975,6
160,1,2,9,13,1.9456816948708,5864.8320436,5866.7884482,0,2.29124630000024,7
161,1,1,1,15,1.74150050074363,5869.0798114,5870.8317727,0,1.33601209999961,2
162,1,2,4,5,1.81784138009989,5872.1678899,5873.9962878,0,2.06739190000008,5
163,1,1,8,4,1.93052840635944,5876.0637961,5878.0047112,0,1.40294279999944,7
164,1,1,7,10,1.42340776254365,5879.4077559,5880.8429437,0,1.00483919999988,6
165,1,2,6,20,1.28635826095364,5881.8478911,5883.1460504,0,1.00584350000008,5
166,1,2,8,21,1.65297195144028,5884.1520009,5885.8155928,0,1.23223370000051,7
167,1,1,6,21,1.69503322280561,5887.0479338,5888.7535081,0,1.68632460000026,5
168,1,1,5,19,1.09071035201312,5890.4399361,5891.5411009,0,1.57852809999986,4
169,1,2,7,14,1.22963331042682,5893.1197233,5894.361784,0,1.66205249999985,7
170,1,1,8,17,1.75315081214528,5896.0239434,5897.7880534,0,1.79573960000016,7
171,1,2,3,7,1.39233491987059,5899.5839409,5900.9866756,0,2.43722309999976,3
172,1,2,4,2,1.81438063000387,5903.4240165,5905.2486238,0,3.15921509999953,4
173,1,2,2,10,1.15280251120687,5908.4079658,5909.5709562,0,1.90080419999958,3
174,1,1,2,2,1.29603126855365,5911.4718662,5912.777848,0,0.949925400000211,2
175,1,2,1,15,1.13556961031784,5913.7278738,5914.874118,0,1.77355050000006,1
176,1,1,2,1,1.96477248631036,5916.6477754,5918.6233016,0,1.59254750000036,2
177,1,1,2,11,1.45778324608256,5920.215955,5921.6843587,0,2.80356969999957,2
178,1,2,3,5,1.74911096561267,5924.4880315,5926.2485558,0,2.41530229999989,5
179,1,1,9,10,1.28696542809521,5928.6639637,5929.9618784,0,1.71791450000001,7
180,1,2,2,22,1.96248070378492,5931.6799294,5933.65271,0,1.51500979999946,2
181,1,1,1,7,1.66342179849128,5935.1678203,5936.8414096,0,1.61443880000024,1
182,1,1,1,9,1.97930785666997,5938.4559951,5940.4453831,0,2.04233659999954,1
183,1,2,9,4,1.70492359483292,5942.4878254,5944.2031451,0,2.09259740000016,9
184,1,2,2,4,1.85494470944774,5946.2958455,5948.1619291,0,2.14182560000063,4
185,1,1,3,5,1.78405909730212,5950.3038904,5952.0987448,0,1.94113040000047,5
186,1,2,9,6,1.08064515900585,5954.039976,5955.130594,0,1.28503289999935,7
187,1,1,6,16,1.91638731257971,5956.4157423,5958.3419211,0,2.08991340000011,5
188,1,1,1,19,1.92456909649851,5960.4320332,5962.3674419,0,1.5602630000003,4
189,1,1,6,15,1.82590099730362,5963.9279072,5965.7648845,0,2.54708299999947,5
190,1,1,1,17,1.39181077446195,5968.3121067,5969.7151413,0,1.56440740000016,2
191,1,1,1,2,1.57750511295576,5971.2796498,5972.8673219,0,1.23647629999959,2
192,1,2,3,13,1.4238887859011,5974.1039004,5975.5385379,0,1.15721389999999,5
193,1,1,3,19,1.70167764549706,5976.6958514,5978.4080698,0,1.86359220000031,4
194,1,1,5,15,1.86880460124636,5980.2717754,5982.1509963,0,2.44874900000013,5
195,1,1,7,18,1.39086956317811,5984.599843,5986.0018856,0,2.16597320000074,5
196,1,2,9,16,1.91866571777003,5988.167962,5990.0972109,0,2.66261659999964,7
197,1,1,9,14,1.391946214985,5992.7599493,5994.1633593,0,1.18042839999998,8
198,1,2,7,3,1.30043689583743,5995.3438985,5996.6553334,0,1.39207379999971,6
199,1,2,8,12,1.0480159283207,5998.0474731,5999.1060633,0,1.64573960000052,7
200,1,1,6,11,1.36891770689312,6000.7519174,6002.1309443,0,0.91650750000008,5
201,1,1,8,5,1.34692596503918,6003.0475044,6004.4051299,0,3.01057639999999,6
202,1,2,8,15,1.79436769457554,6007.415844,6009.220832,0,1.03498140000011,7
203,1,2,8,5,1.82329986745718,6010.2559124,6012.0897164,0,1.73404960000062,7
204,1,1,8,1,1.97576675797293,6013.8238728,6015.8103908,0,1.06147749999946,7
205,1,2,8,18,1.68862911205265,6016.8719741,6018.5714506,0,1.20425249999971,6
206,1,1,7,8,1.7478193896024,6019.7758284,6021.5343811,0,2.6494088999998,6
207,1,2,9,2,1.73538172946832,6024.1838933,6025.9301806,0,1.55755559999943,7
208,1,2,4,9,1.64758171017003,6027.4878742,6029.1449592,0,3.68693600000006,4
209,1,2,6,6,1.01798720338327,6032.8320535,6033.860404,0,3.2675790000003,4
210,1,2,1,18,1.59397629292942,6037.1281025,6038.7315829,0,1.97227670000029,2
211,1,2,8,2,1.65511068691964,6040.7039812,6042.3691148,0,2.14254570000048,6
212,1,2,9,9,1.94351718448224,6044.511766,6046.4653743,0,1.53408310000032,7
213,1,1,4,17,1.13087089079586,6047.9995732,6049.1422446,0,1.24141020000025,5
214,1,1,2,8,1.7359265013852,6050.3837704,6052.1301462,0,2.38963479999984,2
215,1,2,9,14,1.77411185478946,6054.519886,6056.3045263,0,1.23923319999994,7
216,1,1,4,20,1.27104184570823,6057.543859,6058.8249984,0,1.13446380000005,5
217,1,2,7,16,1.57943459098399,6059.9595626,6061.5503915,0,2.28141479999977,6
218,1,2,6,2,1.49042419596084,6063.8319138,6065.3329467,0,0.874678799999856,5
219,1,2,3,10,1.97631025553274,6066.207745,6068.1948358,0,2.60489210000014,3
220,1,1,8,12,1.41200288025669,6070.7998271,6072.2224105,0,2.24944800000048,6
221,1,2,1,11,1.11203227721664,6074.4719327,6075.5939387,0,1.31780600000002,2
222,1,2,5,5,1.07382030343593,6076.9119073,6077.9978113,0,0.985962100000506,5
223,1,1,3,15,1.64414363683944,6078.9838789,6080.6384124,0,1.42596660000072,2
224,1,2,7,15,1.50260739855676,6082.0648716,6083.5829946,0,1.9286003999996,6
225,1,1,4,12,1.48769218088519,6085.511696,6087.00988,0,1.34986850000041,5
226,1,2,7,11,1.00937179076902,6088.3598494,6089.3790531,0,1.1568742999998,6
227,1,2,8,17,1.61584049563441,6090.5360474,6092.1619008,0,2.88579329999993,6
228,1,1,8,9,1.61786178490926,6095.047795,6096.6760639,0,1.92360629999985,7
229,1,2,2,20,1.51788228256588,6098.5997773,6100.1280517,0,3.29564250000021,2
230,1,1,5,8,1.90554391704364,6103.4238019,6105.3396081,0,1.03620349999983,5
231,1,2,4,4,1.15389378445867,6106.375915,6107.5402379,0,1.66758470000059,3
232,1,2,5,4,1.53601173586604,6109.2079294,6110.755072,0,3.99662929999977,5
233,1,2,5,11,1.24143667968371,6114.7518006,6116.0076666,0,0.855946299999232,4
234,1,1,1,21,1.10558745173262,6116.8637145,6117.979566,0,2.06795320000037,3
235,1,1,4,4,1.30525125413962,6120.0475891,6121.3635207,0,0.772100199999841,5
236,1,2,1,10,1.76307313543408,6122.1357291,6123.9094102,0,1.09822780000013,2
237,1,1,1,22,1.09375675079353,6125.0077154,6126.1112379,0,1.11231840000073,1
238,1,2,4,19,1.02740626305253,6127.2236729,6128.2617762,0,0.922083200000088,5
239,1,1,1,12,1.86968434861957,6129.1841219,6131.0647828,0,2.2550468999998,3
240,1,2,1,5,1.14441829157899,6133.319975,6134.4754025,0,1.82016560000011,2
241,1,1,2,17,1.87349281845321,6136.2956695,6138.1803003,0,2.98760209999909,2
242,1,1,8,14,1.22415524158681,6141.1680181,6142.4028567,0,2.18103020000035,7
243,1,1,7,17,1.39244410765188,6144.5839919,6145.9868389,0,3.3169326999996,6
244,1,1,3,1,1.48709845720369,6149.3038713,6150.8020693,0,1.92569449999974,4
245,1,2,3,15,1.56334122666306,6152.7278646,6154.3021734,0,1.64159539999946,3
246,1,1,5,18,1.36418226841618,6155.9438931,6157.3186954,0,1.6249313999997,5
247,1,2,5,20,1.29091348286834,6158.9437364,6160.2455448,0,1.00210049999987,5
248,1,1,6,4,1.65336875790681,6161.2477745,6162.911492,0,1.16820180000013,6
249,1,2,6,1,1.97540881323954,6164.0798304,6166.0644396,0,1.45530460000009,4
250,1,1,9,8,1.73450920994833,6167.5198428,6169.2649726,0,1.77447790000042,7
251,1,2,8,1,1.42503789688811,6171.0395518,6172.4748267,0,1.47705369999949,6
252,1,1,6,1,1.7530206390027,6173.9519968,6175.7165668,0,1.21887980000065,5
253,1,2,1,4,1.44110740565001,6176.9355129,6178.3868665,0,2.51692430000003,3
254,1,2,3,4,1.34155325712656,6180.9039091,6182.2570071,0,1.04662120000012,5
255,1,1,6,10,1.95187109449993,6183.3037301,6185.2664228,0,1.0131180999997,5
256,1,1,7,15,1.92285847926402,6186.2796872,6188.2131453,0,1.90654790000008,6
257,1,2,1,20,1.88530464055814,6190.1197938,6192.0155879,0,1.94406350000008,1
258,1,1,8,3,1.74598647629888,6193.9597788,6195.7164433,0,1.47518159999981,6
259,1,2,9,18,1.23035837808857,6197.1917654,6198.4320837,0,2.03945030000068,6
260,1,2,3,20,1.65437026913167,6200.471632,6202.1360958,0,1.31163210000068,3
261,1,1,5,12,1.04398305402221,6203.447849,6204.5017732,0,0.889859200000501,5
262,1,2,5,12,1.19125653857764,6205.3916913,6206.5935607,0,0.757997400000022,5
263,1,1,8,21,1.48083318283444,6207.3516589,6208.8432079,0,1.41249919999973,6
264,1,1,4,11,1.33094745182943,6210.2558071,6211.597694,0,0.833956700000272,5
265,1,1,7,5,1.08181583827357,6340.2757371,6341.3722024,0,3.59545100000014,6
266,1,1,4,10,1.1428114616909,6344.967761,6346.1208597,0,3.95081929999924,4
267,1,2,6,16,1.99309385174104,6350.071794,6352.0756883,0,1.64390519999961,5
268,1,1,2,6,1.28486924262098,6353.7196946,6355.0154031,0,1.99220999999943,4
269,1,1,3,18,1.67358372381486,6357.007716,6358.6922678,0,1.26745829999982,3
270,1,2,1,9,1.72499024210323,6359.9598376,6361.6961413,0,1.04724840000017,2
271,1,2,3,6,1.12662654079632,6362.7434898,6363.8806099,0,1.12693599999966,5
272,1,2,7,20,1.11505332336345,6365.0076302,6366.1336772,0,0.777780199999142,6
273,1,1,7,6,1.49474811469676,6366.911555,6368.4167668,0,1.18278660000033,7
274,1,1,4,16,1.08228272229975,6369.5996519,6370.6927896,0,0.866845200000171,5
275,1,2,3,19,1.78483130514826,6371.5597586,6373.3551442,0,1.04467440000008,5
276,1,2,8,22,1.03980541719416,6374.3999226,6375.4506044,0,0.932934600000408,6
277,1,1,7,22,1.12948808957714,6376.3836566,6377.5232574,0,1.85241309999947,6
278,1,2,9,10,1.49743311445155,6379.3757777,6380.8836904,0,1.29209059999994,7
279,1,2,4,20,1.2611119153818,6382.175881,6383.4479775,0,1.23947620000035,4
280,1,1,5,14,1.71166760520473,6384.6875527,6386.4099357,0,1.2377331000007,5
281,1,1,8,19,1.04407852766961,6387.6477653,6388.7025517,0,1.08103719999963,6
282,1,1,2,21,1.87328025880426,6389.7836876,6391.6674373,0,1.90827230000014,3
283,1,1,6,17,1.71785425487396,6393.5758439,6395.3038249,0,1.79955319999954,5
284,1,1,5,6,1.00358133312182,6397.1034719,6398.1174383,0,1.02021240000067,4
285,1,1,3,8,1.4503409460455,6399.1377594,6400.600244,0,2.12736559999939,3
286,1,1,2,5,1.08047712444787,6402.7277112,6403.818961,0,1.25248759999977,2
287,1,2,4,7,1.3463246978121,6405.0715411,6406.4287714,0,0.994874600000003,5
288,1,2,9,5,1.15498079404385,6407.423759,6408.5892402,0,2.71402539999963,7
289,1,2,7,1,1.84171411383378,6411.3033694,6413.1555987,0,1.23607699999957,6
290,1,2,6,3,1.42799297964572,6414.3917767,6415.830205,0,0.914112599999498,5
291,1,2,8,13,1.97197905977096,6416.7450597,6418.7276743,0,0.911688299999696,6
292,1,1,4,18,1.37120432240512,6419.6394619,6421.0210396,0,1.36253619999934,4
293,1,2,7,4,1.27786628755779,6422.3837015,6423.6718278,0,0.951611299999968,6
294,1,2,2,13,1.34383962236545,6424.6235426,6425.9770024,0,1.08645439999964,4
295,1,2,9,1,1.57100924096943,6427.0635581,6428.6453666,0,1.5703067000004,7
296,1,2,2,19,1.77951636799434,6430.2158062,6432.0044645,0,1.29925319999984,4
297,1,2,9,15,1.19773593318693,6433.3038197,6434.5119748,0,1.2316507000005,7
298,1,1,4,3,1.2162307990905,6435.743729,6436.9705823,0,3.02896479999981,5
299,3,2,7,18,1.4931113340695,6439.9996383,6441.5029292,0,NaN,None
300,1,1,9,22,1.87243199805314,6445.5029615,6447.3856903,0,1.45394230000056,8
301,1,2,2,11,1.05503717176362,6448.8397332,6449.9055392,0,1.14193319999958,2
302,1,1,2,12,1.8076658842638,6451.0475987,6452.865866,0,1.42996579999999,2
303,1,2,9,17,1.9580346284363,6454.2959576,6456.2647744,0,0.974661900000683,8
304,1,1,5,3,1.83894132331219,6457.2395417,6459.089221,0,1.03032929999972,5
305,1,1,5,13,1.16978892945357,6460.1196659,6461.2996015,0,1.09999739999967,5
306,1,1,5,21,1.06914897228678,6462.3997677,6463.4791359,0,1.39206540000032,5
307,1,2,3,12,1.14917685837238,6464.8713226,6466.032779,0,1.16683850000027,4
308,1,2,5,10,1.30673815386039,6467.1997238,6468.5169179,0,0.714680799999769,5
309,1,2,8,8,1.00971060251401,6469.2317261,6470.2516072,0,2.77216969999972,7
310,1,1,9,4,1.49335322981164,6473.0239177,6474.5277763,0,1.22385269999995,8
311,1,1,3,14,1.03263184361401,6475.7517428,6476.7947973,0,1.62877169999956,4
312,1,1,4,7,1.03591054488579,6478.423672,6479.4716528,0,0.943961400000262,5
313,1,2,2,9,1.92388157310642,6480.4157201,6482.3500806,0,1.28956870000002,2
314,1,2,8,10,1.01816241240932,6483.6397477,6484.6670255,0,1.50856750000003,6
315,1,2,5,8,1.92018635061158,6486.1756969,6488.1060371,0,0.853369399999792,5
316,1,2,6,11,1.06347520866776,6488.9595112,6490.0342596,0,0.66911379999965,5
317,1,1,6,13,1.09261309344096,6490.7034879,6491.8067259,0,0.656554000000142,5
318,1,1,2,20,1.69540609723023,6492.4633476,6494.1693136,0,1.20615569999973,2
319,1,2,6,9,1.39067379583141,6495.375574,6496.7762122,0,1.63957369999935,4
320,1,2,3,22,1.22142239779083,6498.415888,6499.6475813,0,1.80014389999997,3
321,1,2,2,16,1.43816216695533,6501.4478849,6502.8966018,0,1.89496320000035,3
322,1,1,3,13,1.13010280902497,6504.7916713,6505.9336054,0,1.87377809999998,5
323,1,2,9,7,1.09527091607761,6507.8074845,6508.9132358,0,1.35022570000001,7
324,1,1,3,10,1.47795432626702,6510.2635758,6511.7528438,0,1.26266630000009,3
325,1,1,1,10,1.2611688397268,6513.0156103,6514.2873701,0,1.28037719999975,2
326,1,2,4,16,1.74429667380118,6515.5679311,6517.3227198,0,1.06882369999948,5
327,1,1,5,4,1.99046068901998,6518.3916406,6520.3928,0,1.22285830000055,5
328,1,2,5,9,1.36975864685622,6521.6157592,6522.9962897,0,0.955258300000423,5
329,1,2,4,13,1.59359964940583,6523.9516481,6525.5566548,0,0.666950499999984,5
330,1,1,7,21,1.12922928350855,6526.2237101,6527.363549,0,1.38008760000048,7
331,1,2,2,2,1.96811537625277,6528.7437574,6530.722242,0,2.41320570000062,3
332,1,1,3,9,1.5656585455238,6533.1355592,6534.7120246,0,1.40776909999931,2
333,1,1,3,6,1.47935137698226,6536.1200151,6537.6096665,0,1.58196000000044,4
334,1,2,2,1,1.63204810258844,6539.1917276,6540.8333754,0,1.54233250000016,2
335,1,1,4,19,1.39422995876058,6542.3758315,6543.7796707,0,3.5877559999999,5
336,1,1,9,11,1.24009746468713,6547.3675287,6548.6185427,0,1.25311770000008,7
337,3,1,6,22,1.40598501028601,6549.8717726,6551.2881146,0,NaN,None
338,1,2,8,14,1.01500443637698,6555.2881475,6556.3138323,0,1.07755050000014,8
339,1,1,9,12,1.93883133004082,6557.3915117,6559.3411052,0,1.09826909999992,8
340,1,2,8,9,1.54966578921888,6560.4394691,6561.999754,0,1.03179479999926,8
341,1,1,6,20,1.76168751633181,6563.0316469,6564.8039942,0,1.03555310000047,5
342,1,1,7,9,1.02664099370893,6565.8396502,6566.8764933,0,2.25904569999966,6
343,1,1,1,4,1.06842595365697,6569.1356505,6570.2157571,0,2.1039509000002,3
344,1,2,2,6,1.60060436649331,6572.3197686,6573.9310477,0,2.86848100000043,4
345,1,1,7,19,1.81973587190134,6576.7996437,6578.6295055,0,3.89008110000032,4
346,1,2,5,3,1.95452448047466,6582.5197301,6584.4853685,0,1.6902656000002,5
347,1,1,1,5,1.25563781652652,6586.1757678,6587.4411453,0,1.15832069999942,2
348,1,2,2,15,1.22844928545761,6588.5995679,6589.8382802,0,1.16889480000009,2
349,1,2,4,1,1.62457316845522,6591.0072273,6592.6412262,0,1.35833789999924,4
350,1,1,2,15,1.92196748811639,6593.9996649,6595.9340246,0,2.3615620999999,2
351,1,2,5,21,1.30258360063821,6598.2956934,6599.6086471,0,1.22291440000026,5
352,1,1,4,9,1.73231517846678,6600.8316792,6602.5745425,0,2.2170085000007,4
353,1,2,4,3,1.61472315898947,6604.7916851,6606.4165784,0,1.32679370000005,5
354,1,2,1,6,1.47993505108247,6607.7434919,6609.2346353,0,1.29293439999947,4
355,1,1,1,3,1.01742883005252,6610.5276731,6611.5560036,0,1.22756070000014,2
356,1,2,6,19,1.18251086538132,6612.7836876,6613.9771212,0,1.56637670000055,5
357,1,1,6,8,1.40639370814996,6615.543596,6616.9603422,0,1.52716450000025,5
358,1,1,4,5,1.12724590767356,6618.4876402,6619.6251502,0,1.23832390000007,5
359,1,2,2,8,1.07747542674869,6620.863571,6621.9516042,0,2.02388860000065,2
360,1,1,8,15,1.94460459493219,6623.9755978,6625.9313266,0,1.4122755999997,8
361,1,1,2,4,1.82062363730481,6627.343703,6629.1737658,0,1.5058724999999,4
362,3,1,9,9,1.72824550623961,6630.6797421,6632.4191494,0,NaN,None
363,1,2,3,3,1.4872193266506,6636.4191817,6637.9176729,0,1.3137171999997,4
364,1,1,1,8,1.97319993043089,6639.2315141,6641.21541,0,1.75215650000064,3
365,1,1,1,16,1.54103087166435,6642.967667,6644.5191187,0,1.18414889999985,2
366,1,2,5,19,1.91888929218361,6645.7033592,6647.6334429,0,1.11011669999971,5
367,1,2,3,16,1.18949831169439,6648.7437074,6649.9441751,0,1.15111789999992,4
368,1,2,6,5,1.43500126792712,6651.0953604,6652.5409001,0,1.05856740000036,6
369,1,2,6,13,1.49044762031138,6653.5995821,6655.101109,0,0.890427700000146,5
370,1,1,7,1,1.30172574834496,6655.9916374,6657.3038761,0,1.04758020000008,6
371,1,1,1,6,1.96492066361222,6658.3515802,6660.32695,0,0.912232300000142,5
372,1,2,8,20,1.26583953744739,6661.2393067,6662.5159598,0,0.971532800000205,6
373,1,1,7,7,1.87760557674609,6663.4876255,6665.3760109,0,0.839384199999586,6
374,1,1,9,13,1.4760796190118,6666.2154962,6667.7023302,0,1.32925020000039,6
375,1,2,6,18,1.90544243339268,6669.0316897,6670.9476303,0,0.995720199999596,5
376,1,2,4,11,1.74946867144674,6671.9434709,6673.7036312,0,0.759905900000376,5
377,1,1,5,7,1.85676600743015,6674.4636453,6676.3312408,0,0.876393499999722,5
378,1,1,3,3,1.77576473603865,6677.2077357,6678.9945192,0,1.62083330000041,4
379,1,2,5,14,1.0855946828848,6680.6154679,6681.7115137,0,1.66391709999971,5
380,1,1,8,6,1.30483686134032,6683.3755709,6684.6913844,0,0.995947800000067,6
381,1,2,3,11,1.59402978798511,6685.6874331,6687.2928514,0,1.59467200000017,4
382,1,1,9,16,1.3488416505615,6688.8876217,6690.2472056,0,1.65619049999987,7
383,1,1,9,1,1.96582005712427,6691.9034959,6693.880075,0,1.13552340000024,8
384,1,2,7,22,1.91709863143678,6695.0156968,6696.9423081,0,1.2489859999996,6
385,1,1,6,5,1.1393275662622,6698.1913677,6699.3395886,0,1.02788320000036,5
386,1,2,1,8,1.69029151767616,6700.3675723,6702.0682487,0,1.4111469999998,2
387,1,1,6,14,1.56867653099978,6703.4795107,6705.0585746,0,2.9008431000002,5
388,1,2,5,7,1.4025551987101,6707.9595391,6709.3723509,0,0.851150999999845,5
389,1,2,3,8,1.88732185631151,6710.2236009,6712.1212806,0,1.79824219999955,2
390,1,2,1,3,1.92417608427742,6713.9196619,6715.8542953,0,1.51302690000011,2
391,1,2,9,8,1.64520408685474,6717.3673911,6719.0225721,0,1.82497770000009,8
392,1,1,1,1,1.02040076051898,6720.8476522,6721.879122,0,1.32803590000003,2
393,1,2,4,22,1.23062400553029,6723.2072421,6724.4480856,0,0.823297599999933,5
394,1,1,9,18,1.33735744352104,6725.271455,6726.6191899,0,1.54819150000003,7
395,1,2,9,3,1.94633864737774,6728.1675097,6730.1246732,0,1.43468469999971,7
396,1,2,9,21,1.85754241128067,6731.5594693,6733.4261822,0,1.09321999999975,8
