ID,State,Position ID,Morph Step,Face Person,ITI,Trial_Onset,Stim_Onset,Stim_Offset,RT,Answer
1,1,2,1,10,1.002734600,60421.2648,60422.2675,0,1.0615804,3
2,1,2,4,8,1.871026950,60423.3291,60425.2001,0,1.6762097,4
3,1,2,4,1,1.876606292,60426.8763,60428.7529,0,1.2615093,5
4,1,1,9,16,1.645897279,60430.0145,60431.6603,0,2.1795632,9
5,1,2,1,11,1.074256545,60433.8399,60434.9142,0,1.1843810,2
6,1,1,4,21,1.770811905,60436.0986,60437.8694,0,2.7779994,4
7,1,1,8,1,1.705072037,60440.6474,60442.3524,0,2.0107482,8
8,1,1,1,8,1.375060468,60444.3632,60445.7382,0,1.5973419,1
9,1,2,7,18,1.809866941,60447.3356,60449.1455,0,2.6439961,8
10,1,1,7,3,1.348652797,60451.7894,60453.1381,0,3.8951468,8
11,1,2,3,12,1.319245519,60457.0332,60458.3525,0,1.4257686,4
12,1,1,4,5,1.505588439,60459.7783,60461.2838,0,1.9782603,3
13,1,1,1,1,1.606016221,60463.2621,60464.8681,0,2.2320890,2
14,1,2,9,14,1.504510521,60467.1002,60468.6047,0,2.9588487,8
15,1,1,5,7,1.064111906,60471.5636,60472.6277,0,2.4160165,4
16,1,1,8,4,1.727100684,60475.0437,60476.7708,0,2.1259336,8
17,1,1,6,12,1.890507189,60478.8967,60480.7872,0,1.2153883,6
18,1,1,8,14,1.453937735,60482.0026,60483.4566,0,1.5837368,7
19,1,1,2,5,1.986389885,60485.0403,60487.0267,0,3.0528756,2
20,1,2,2,18,1.649392118,60490.0796,60491.7290,0,1.5229151,3
21,1,1,2,2,1.034215138,60493.2519,60494.2861,0,1.9265318,3
22,1,2,3,10,1.899846172,60496.2126,60498.1125,0,2.0074207,4
23,1,2,8,10,1.825256805,60500.1199,60501.9452,0,1.9380527,8
24,1,2,2,15,1.891715198,60503.8832,60505.7749,0,1.8688372,2
25,1,1,4,6,1.731331294,60507.6438,60509.3751,0,3.5616371,4
26,1,1,9,21,1.704058952,60512.9367,60514.6408,0,1.8840456,9
27,1,2,3,3,1.948399821,60516.5248,60518.4732,0,2.7705291,3
28,1,1,6,18,1.560113059,60521.2438,60522.8039,0,1.7820281,5
29,1,1,7,8,1.510137938,60524.5859,60526.0960,0,1.4847730,6
30,1,2,5,4,1.300046466,60527.5808,60528.8809,0,1.2226549,3
31,1,1,3,18,1.843603334,60530.1035,60531.9471,0,2.3087768,3
32,1,2,5,5,1.314732806,60534.2559,60535.5706,0,1.1635369,5
33,1,1,7,6,1.654320920,60536.7342,60538.3885,0,2.0391738,7
34,1,2,6,9,1.123532017,60540.4277,60541.5512,0,1.8163519,5
35,1,2,7,9,1.466050499,60543.3675,60544.8336,0,1.6942595,7
36,1,2,3,22,1.995675546,60546.5278,60548.5235,0,1.3358780,3
37,1,2,4,10,1.692110345,60549.8594,60551.5515,0,1.8743217,4
38,1,1,5,5,1.333768943,60553.4258,60554.7596,0,0.7456485,5
39,1,1,2,21,1.657355029,60555.5053,60557.1626,0,1.3648026,3
40,1,1,8,6,1.495977310,60558.5274,60560.0234,0,1.3359686,8
41,1,1,1,3,1.098064489,60561.3594,60562.4574,0,2.3699275,2
42,1,1,2,20,1.977656042,60564.8273,60566.8050,0,1.6716658,3
43,1,2,7,12,1.197677101,60568.4767,60569.6743,0,1.1423977,8
44,1,2,4,14,1.676153193,60570.8167,60572.4929,0,1.4674621,3
45,1,1,8,10,1.541064329,60573.9604,60575.5014,0,1.7317314,4
46,1,1,7,19,1.649312865,60577.2332,60578.8825,0,1.1096596,6
47,3,2,6,19,1.752540689,60579.9921,60581.7447,0,NaN,None
48,1,1,8,21,1.293327842,60585.7447,60587.0380,0,1.4445457,4
49,1,2,2,5,1.244887200,60588.4825,60589.7274,0,1.9120668,3
50,1,2,9,22,1.055260138,60591.6395,60592.6948,0,0.9506269,8
51,1,2,1,20,1.207058392,60593.6454,60594.8524,0,2.6199385,2
52,1,1,5,22,1.280415105,60597.4724,60598.7528,0,3.2839140,6
53,1,1,2,14,1.894581172,60602.0367,60603.9313,0,1.7018796,2
54,1,1,6,6,1.964654744,60605.6332,60607.5978,0,0.8170921,6
55,1,2,9,11,1.092635717,60608.4149,60609.5076,0,1.2530699,4
56,1,2,8,11,1.600360439,60610.7606,60612.3610,0,2.3438979,6
57,1,1,1,19,1.108793741,60614.7049,60615.8137,0,0.8525573,1
58,1,2,9,16,1.840790770,60616.6662,60618.5070,0,1.3741570,8
59,1,1,3,9,1.920839558,60619.8812,60621.8020,0,2.2284106,2
60,1,1,9,6,1.254653239,60624.0304,60625.2851,0,2.5923736,9
61,1,1,9,1,1.923801287,60627.8775,60629.8013,0,2.9025462,7
62,1,2,6,22,1.362086338,60632.7038,60634.0659,0,0.6029488,6
63,1,2,6,14,1.457350092,60634.6688,60636.1262,0,1.4044228,5
64,1,2,9,4,1.195740795,60637.5306,60638.7264,0,1.4077234,4
65,1,1,4,16,1.336746126,60640.1341,60641.4708,0,1.7276313,3
66,1,1,5,11,1.102741482,60643.1985,60644.3012,0,2.0508479,4
67,1,2,1,18,1.478529790,60646.3520,60647.8306,0,1.4188103,2
68,1,1,8,12,1.816484038,60649.2494,60651.0659,0,2.1100276,8
69,1,1,7,1,1.317192909,60653.1759,60654.4931,0,3.3044920,7
70,1,2,5,17,1.088983679,60657.7976,60658.8866,0,4.0000000,5
71,1,1,8,13,1.083632305,60662.8866,60663.9702,0,0.6409573,4
72,1,2,1,14,1.557149014,60664.6112,60666.1683,0,1.6829641,2
73,1,2,5,10,1.894321626,60667.8513,60669.7456,0,1.8593720,5
74,1,1,6,9,1.633368015,60671.6050,60673.2383,0,1.9067507,5
75,1,1,3,17,1.830075059,60675.1451,60676.9752,0,2.5444969,4
76,1,1,9,8,1.225164371,60679.5197,60680.7448,0,2.6849932,9
77,1,1,8,17,1.851937137,60683.4298,60685.2817,0,2.5364656,7
78,1,1,4,11,1.144355560,60687.8182,60688.9626,0,2.1589708,4
79,1,2,8,20,1.381348010,60691.1215,60692.5029,0,1.8420782,8
80,1,2,1,16,1.787924771,60694.3450,60696.1329,0,1.6098538,1
81,1,1,8,19,1.613270669,60697.7427,60699.3560,0,2.3046651,8
82,3,1,7,4,1.379930417,60701.6607,60703.0406,0,NaN,None
83,1,1,2,12,1.199912134,60707.0406,60708.2405,0,1.6374741,2
84,1,1,5,20,1.265590325,60709.8780,60711.1436,0,1.7193068,5
85,1,2,6,18,1.230771536,60712.8629,60714.0937,0,1.4800401,3
86,1,2,2,1,1.692464389,60715.5737,60717.2662,0,2.3904798,2
87,1,1,7,9,1.742386164,60719.6566,60721.3990,0,2.8367375,7
88,1,1,3,3,1.978909801,60724.2358,60726.2147,0,1.0074909,3
89,1,2,1,1,1.059075315,60727.2222,60728.2812,0,0.9293339,2
90,1,2,1,22,1.634956132,60729.2106,60730.8455,0,2.1093264,2
91,1,2,6,7,1.482504690,60732.9549,60734.4374,0,2.1519226,6
92,1,1,4,19,1.986317756,60736.5893,60738.5756,0,1.5113198,3
93,1,2,2,2,1.196705106,60740.0869,60741.2836,0,1.8420089,3
94,1,1,3,22,1.950253964,60743.1256,60745.0759,0,1.5881398,3
95,1,2,4,4,1.652565553,60746.6640,60748.3166,0,2.6691507,4
96,1,2,2,19,1.082963850,60750.9858,60752.0687,0,1.2520015,3
97,1,2,1,6,1.007804391,60753.3207,60754.3285,0,2.2218939,2
98,1,2,2,3,1.897444389,60756.5504,60758.4479,0,1.1649363,3
99,3,1,6,5,1.908617371,60759.6128,60761.5214,0,NaN,None
100,1,2,9,21,1.342189870,60765.5214,60766.8636,0,2.8872629,8
101,1,1,7,10,1.695358122,60769.7509,60771.4462,0,2.2095725,7
102,1,1,4,8,1.937345428,60773.6558,60775.5931,0,2.3000992,3
103,1,2,4,21,1.281977923,60777.8932,60779.1752,0,2.9848172,5
104,1,2,3,7,1.347871825,60782.1600,60783.5079,0,1.4754635,3
105,1,2,5,14,1.311511399,60784.9834,60786.2949,0,1.9882517,5
106,1,2,7,3,1.803983444,60788.2831,60790.0871,0,1.0303543,7
107,1,1,3,16,1.301932417,60791.1175,60792.4194,0,2.1056590,4
108,1,1,8,18,1.776078898,60794.5251,60796.3011,0,2.3724619,8
109,1,2,8,14,1.149256078,60798.6736,60799.8229,0,1.6853205,7
110,1,2,2,6,1.070409114,60801.5082,60802.5786,0,0.7837548,2
111,1,1,5,14,1.294809968,60803.3623,60804.6572,0,2.5579842,5
112,1,1,4,1,1.009623944,60807.2151,60808.2248,0,1.6682247,3
113,1,2,4,18,1.430644630,60809.8930,60811.3236,0,4.0000000,5
114,1,2,3,14,1.167946328,60815.3236,60816.4916,0,1.2808076,4
115,1,2,6,1,1.079541541,60817.7724,60818.8519,0,1.3979954,6
116,1,1,9,22,1.912979184,60820.2499,60822.1629,0,1.8581225,8
117,1,1,8,8,1.615519670,60824.0210,60825.6365,0,0.7642455,7
118,1,2,9,9,1.784810534,60826.4008,60828.1856,0,1.9031250,8
119,1,2,7,6,1.841836722,60830.0887,60831.9306,0,3.0747821,6
120,1,2,6,13,1.894037080,60835.0053,60836.8994,0,2.8955149,5
121,1,1,1,5,1.362939479,60839.7949,60841.1578,0,2.2614292,1
122,1,1,3,13,1.270942668,60843.4193,60844.6902,0,0.6921867,4
123,1,1,2,22,1.563457979,60845.3824,60846.9459,0,2.8261050,3
124,1,2,4,16,1.840009506,60849.7720,60851.6120,0,2.2647430,5
125,1,2,4,13,1.822815686,60853.8767,60855.6995,0,0.8244846,5
126,1,2,2,17,1.923880181,60856.5240,60858.4479,0,1.4106557,3
127,1,2,7,21,1.077284875,60859.8585,60860.9358,0,1.7570473,7
128,1,1,8,15,1.749976217,60862.6929,60864.4429,0,2.3959548,4
129,1,2,7,5,1.564325725,60866.8388,60868.4031,0,1.5055261,6
130,1,2,6,17,1.942089476,60869.9087,60871.8508,0,2.4943176,3
131,1,1,4,9,1.896148436,60874.3451,60876.2412,0,3.5191533,4
132,1,1,5,6,1.631849826,60879.7604,60881.3922,0,2.2205783,5
133,1,1,1,16,1.612293363,60883.6128,60885.2251,0,1.1027287,2
134,1,2,8,4,1.241054628,60886.3278,60887.5689,0,1.3010265,8
135,1,1,3,19,1.674617654,60888.8699,60890.5445,0,1.2771946,3
136,3,1,3,8,1.566221203,60891.8217,60893.3879,0,NaN,None
137,1,1,1,13,1.605727923,60897.3879,60898.9937,0,1.4057910,3
138,1,1,3,7,1.141135916,60900.3995,60901.5406,0,1.1460962,4
139,1,2,3,13,1.803983822,60902.6867,60904.4907,0,1.0753805,3
140,1,2,5,15,1.929348761,60905.5661,60907.4954,0,2.4755149,3
141,1,2,2,22,1.513015799,60909.9709,60911.4839,0,2.4867460,2
142,1,1,4,3,1.529872570,60913.9707,60915.5005,0,2.5393084,5
143,1,1,9,15,1.756947761,60918.0399,60919.7968,0,2.1935145,9
144,1,1,1,4,1.500356759,60921.9903,60923.4907,0,1.3975324,2
145,1,2,5,21,1.930143790,60924.8882,60926.8184,0,2.7883511,6
146,1,2,4,17,1.719378078,60929.6067,60931.3261,0,1.8552210,3
147,1,1,7,22,1.865676233,60933.1813,60935.0470,0,1.4046870,7
148,1,2,3,11,1.620835862,60936.4517,60938.0725,0,1.9013002,3
149,1,2,9,15,1.081523868,60939.9738,60941.0553,0,2.6277662,9
150,1,1,6,7,1.559194806,60943.6831,60945.2423,0,1.9213620,5
151,1,1,1,9,1.717851543,60947.1636,60948.8815,0,1.1118661,1
152,1,1,3,15,1.333151549,60949.9934,60951.3265,0,1.2670217,4
153,1,1,4,12,1.805092049,60952.5935,60954.3986,0,1.2268246,4
154,1,2,4,7,1.783610116,60955.6255,60957.4091,0,1.2230405,4
155,1,2,1,21,1.900724208,60958.6321,60960.5328,0,2.6859782,2
156,1,2,4,19,1.154410688,60963.2188,60964.3732,0,3.2940279,4
157,1,1,9,20,1.363774517,60967.6672,60969.0310,0,1.3380655,4
158,1,2,7,11,1.223806352,60970.3691,60971.5929,0,0.8058181,6
159,1,2,5,7,1.181490313,60972.3987,60973.5802,0,1.5615071,5
160,1,2,2,10,1.114781860,60975.1417,60976.2565,0,1.8992486,3
161,1,1,8,16,1.735059413,60978.1557,60979.8908,0,2.5743485,8
162,1,1,9,13,1.589632442,60982.4651,60984.0548,0,1.5565663,8
163,1,1,1,17,1.327217336,60985.6113,60986.9386,0,2.2042298,2
164,1,1,9,5,1.681828229,60989.1428,60990.8246,0,1.9445338,9
165,1,2,8,18,1.110695674,60992.7692,60993.8799,0,2.5847764,7
166,1,1,6,19,1.927998482,60996.4646,60998.3926,0,2.6256023,5
167,1,1,5,17,1.432282880,61001.0182,61002.4505,0,1.6172311,3
168,1,1,2,8,1.637700355,61004.0677,61005.7054,0,1.6841694,2
169,3,1,1,6,1.917073330,61007.3896,61009.3067,0,NaN,None
170,1,2,3,16,1.227581051,61013.3067,61014.5343,0,1.6276207,3
171,1,2,7,22,1.083709749,61016.1619,61017.2456,0,1.6440273,7
172,1,1,2,10,1.821213888,61018.8896,61020.7108,0,1.2133203,2
173,1,2,4,12,1.758432600,61021.9242,61023.6826,0,1.7225699,4
174,1,2,2,20,1.290333182,61025.4052,61026.6955,0,2.5036117,3
175,1,2,1,17,1.224342772,61029.1991,61030.4235,0,1.4382853,2
176,1,2,5,19,1.108752482,61031.8617,61032.9705,0,2.0011654,6
177,1,1,6,13,1.041044411,61034.9717,61036.0127,0,1.5858829,6
178,1,1,5,16,1.606981023,61037.5986,61039.2056,0,1.9433848,4
179,1,1,7,16,1.349963073,61041.1489,61042.4989,0,2.1183270,7
180,1,1,6,16,1.528670032,61044.6172,61046.1459,0,2.5556246,5
181,1,1,7,13,1.396710330,61048.7015,61050.0982,0,1.1864703,6
182,1,2,3,21,1.524525162,61051.2847,61052.8092,0,1.2720024,3
183,1,2,5,12,1.576516739,61054.0812,61055.6578,0,2.2531390,5
184,1,2,7,20,1.693946066,61057.9109,61059.6048,0,3.0052142,7
185,1,1,5,15,1.037336763,61062.6101,61063.6474,0,2.2931041,5
186,1,2,9,12,1.553312075,61065.9405,61067.4938,0,2.3060805,8
187,1,1,2,1,1.797555774,61069.7999,61071.5974,0,1.8514774,2
188,1,1,2,16,1.375651483,61073.4489,61074.8246,0,1.7001103,3
189,1,2,3,5,1.571250288,61076.5247,61078.0959,0,2.2596815,3
190,1,2,7,19,1.921728307,61080.3556,61082.2773,0,2.5413726,7
191,1,1,9,9,1.851647413,61084.8187,61086.6704,0,2.1895816,8
192,1,2,3,6,1.503473560,61088.8599,61090.3634,0,1.8918884,3
193,1,1,5,13,1.958075080,61092.2553,61094.2134,0,2.8576952,5
194,1,1,7,17,1.445602609,61097.0711,61098.5167,0,1.1780627,7
195,1,1,7,21,1.584918350,61099.6947,61101.2797,0,1.4142325,3
196,1,1,3,10,1.730881198,61102.6939,61104.4248,0,1.1867038,2
197,1,2,8,17,1.172302038,61105.6115,61106.7838,0,1.8511941,8
198,1,1,1,2,1.497702643,61108.6350,61110.1327,0,2.5082692,1
199,1,1,5,21,1.594601325,61112.6409,61114.2355,0,1.1320962,4
200,1,1,1,21,1.340498499,61115.3676,61116.7081,0,1.4632535,1
201,1,1,1,10,1.533312066,61118.1714,61119.7047,0,1.2014204,2
202,3,1,6,15,1.991482048,61120.9061,61122.8976,0,NaN,None
203,1,2,4,15,1.842384559,61126.8976,61128.7400,0,1.7185021,4
204,1,2,3,18,1.552521592,61130.4585,61132.0110,0,1.6917208,3
205,1,2,9,6,1.322679448,61133.7027,61135.0254,0,2.1131671,9
206,1,1,5,8,1.406233742,61137.1386,61138.5448,0,0.6637353,5
207,1,1,4,20,1.110513029,61139.2086,61140.3191,0,1.9290603,4
208,1,2,8,9,1.395897895,61142.2481,61143.6440,0,1.1625526,8
209,1,1,6,20,1.460716551,61144.8066,61146.2673,0,2.4846649,5
210,1,2,6,11,1.369723450,61148.7520,61150.1217,0,0.7552052,6
211,1,2,3,20,1.835930081,61150.8769,61152.7128,0,3.1039298,4
212,1,1,7,7,1.020957731,61155.8167,61156.8377,0,1.6555739,8
213,1,1,9,7,1.764771798,61158.4933,61160.2581,0,2.3810680,8
214,1,1,5,10,1.148394917,61162.6391,61163.7875,0,0.9388651,4
215,3,1,1,15,1.389600889,61164.7264,61166.1160,0,NaN,None
216,1,2,7,15,1.275518021,61170.1160,61171.3915,0,2.9084844,7
217,1,2,6,8,1.792764502,61174.3000,61176.0927,0,2.0945180,5
218,1,2,7,8,1.352834615,61178.1873,61179.5401,0,2.4875319,7
219,1,1,5,2,1.792131318,61182.0276,61183.8198,0,1.4331676,5
220,1,2,4,5,1.502701807,61185.2529,61186.7556,0,1.2964462,4
221,1,2,6,6,1.944354133,61188.0521,61189.9964,0,1.6262291,5
222,1,2,8,7,1.579001910,61191.6227,61193.2017,0,1.1138006,4
223,1,1,9,10,1.968096443,61194.3155,61196.2836,0,2.5997161,8
224,1,2,4,3,1.433199280,61198.8833,61200.3165,0,1.8862434,4
225,1,1,3,12,1.998511921,61202.2027,61204.2012,0,1.6375806,4
226,1,2,9,10,1.045203522,61205.8388,61206.8840,0,2.2939506,9
227,1,2,3,19,1.445243498,61209.1780,61210.6232,0,2.6825349,2
228,1,2,9,5,1.485928783,61213.3057,61214.7917,0,1.4342958,9
229,1,2,2,16,1.185406614,61216.2260,61217.4114,0,3.4340899,2
230,1,2,6,3,1.731955897,61220.8455,61222.5774,0,3.1255050,6
231,1,1,4,14,1.325417415,61225.7029,61227.0283,0,2.4288493,3
232,1,2,9,20,1.323719541,61229.4572,61230.7809,0,1.1665989,8
233,1,2,9,8,1.839565285,61231.9475,61233.7871,0,1.4870015,8
234,1,2,1,12,1.442354158,61235.2741,61236.7164,0,3.6007796,1
235,1,1,6,3,1.192771566,61240.3172,61241.5100,0,1.8093303,4
236,1,1,7,14,1.232934265,61243.3193,61244.5522,0,2.4160661,7
237,1,1,4,10,1.612953300,61246.9683,61248.5813,0,2.4440027,4
238,1,1,5,9,1.139787265,61251.0253,61252.1651,0,1.0318816,5
239,1,1,2,6,1.481233659,61253.1969,61254.6782,0,2.4069328,3
240,1,1,7,15,1.991431719,61257.0851,61259.0765,0,1.7643355,8
241,3,2,8,1,1.482548049,61260.8409,61262.3234,0,NaN,None
242,1,2,9,13,1.905845777,61266.3234,61268.2293,0,2.3637865,8
243,1,1,5,1,1.279922757,61270.5931,61271.8730,0,2.8478071,4
244,1,1,8,7,1.774427106,61274.7208,61276.4952,0,1.0090222,7
245,1,2,7,10,1.494580224,61277.5042,61278.9988,0,1.6789834,7
246,1,2,8,21,1.927636375,61280.6778,61282.6054,0,2.0010941,7
247,1,1,7,18,1.433510920,61284.6065,61286.0400,0,2.1119538,7
248,1,2,5,6,1.781302867,61288.1520,61289.9333,0,2.0626409,5
249,1,2,8,16,1.665678112,61291.9959,61293.6616,0,2.3417411,7
250,1,2,6,2,1.961354262,61296.0034,61297.9647,0,1.3580665,5
251,1,2,2,13,1.795904238,61299.3228,61301.1187,0,2.9808949,2
252,1,2,8,8,1.638537379,61304.0996,61305.7381,0,2.5968048,8
253,1,2,8,6,1.967783023,61308.3349,61310.3027,0,2.5693814,7
254,1,1,6,21,1.383144768,61312.8721,61314.2552,0,2.2486702,5
255,1,2,9,3,1.919619565,61316.5039,61318.4235,0,1.8019742,8
256,1,2,3,2,1.248588407,61320.2255,61321.4741,0,1.3927452,3
257,1,1,6,22,1.667554248,61322.8668,61324.5344,0,1.8719197,5
258,1,2,8,13,1.476760950,61326.4063,61327.8831,0,1.2216171,7
259,1,1,9,3,1.771994961,61329.1047,61330.8767,0,2.5968435,8
260,1,2,4,20,1.151668992,61333.4735,61334.6252,0,1.2972934,4
261,1,2,1,4,1.979112963,61335.9225,61337.9016,0,1.2903923,2
262,1,1,8,11,1.829927925,61339.1920,61341.0219,0,1.2691428,8
263,1,1,1,22,1.069127753,61342.2911,61343.3602,0,1.0755240,1
264,1,1,6,14,1.128920850,61344.4357,61345.5646,0,1.8492847,6
265,1,2,1,5,1.593149615,61347.4139,61349.0071,0,1.4296171,1
266,1,1,2,11,1.011908211,61350.4367,61351.4486,0,1.5355354,3
267,1,2,6,21,1.674272324,61352.9841,61354.6584,0,1.7657473,6
268,1,1,4,13,1.672735080,61356.4241,61358.0969,0,1.7557496,4
269,1,1,1,7,1.223414344,61359.8526,61361.0760,0,1.5460477,2
270,1,2,5,22,1.910816824,61362.6221,61364.5329,0,2.3511937,6
271,1,2,5,18,1.412308769,61366.8841,61368.2964,0,0.9736516,5
272,1,1,4,2,1.879533056,61369.2701,61371.1496,0,1.4489388,3
273,1,1,7,12,1.043747515,61372.5985,61373.6423,0,2.1562792,7
274,1,2,3,9,1.963387956,61375.7986,61377.7619,0,1.2458325,4
275,1,2,1,19,1.800857663,61379.0078,61380.8086,0,3.7675461,2
276,1,2,2,9,1.169224742,61384.5762,61385.7454,0,2.6937256,3
277,1,1,8,5,1.562529793,61388.4391,61390.0017,0,2.3316365,8
278,1,1,6,10,1.043377532,61392.3333,61393.3767,0,1.5804444,6
279,1,2,6,5,1.526813419,61394.9571,61396.4839,0,0.7834366,5
280,1,2,3,4,1.648782006,61397.2674,61398.9162,0,1.4333175,4
281,1,1,2,18,1.862788506,61400.3495,61402.2123,0,1.2952416,3
282,1,1,1,14,1.569197073,61403.5075,61405.0767,0,2.8946411,2
283,1,1,9,14,1.365795716,61407.9713,61409.3371,0,3.2622075,4
284,1,2,9,18,1.188519292,61412.5993,61413.7879,0,1.6628763,8
285,1,2,5,2,1.958759543,61415.4507,61417.4095,0,1.9747072,3
286,1,2,6,20,1.000215175,61419.3842,61420.3844,0,2.6097656,3
287,1,1,4,18,1.324945433,61422.9942,61424.3191,0,1.8107702,3
288,1,2,5,1,1.549514781,61426.1299,61427.6794,0,2.2609846,5
289,1,2,8,2,1.182491794,61429.9404,61431.1229,0,1.7974973,7
290,1,1,3,11,1.016117939,61432.9204,61433.9365,0,2.4900770,2
291,1,1,5,4,1.805418192,61436.4266,61438.2320,0,2.0713539,5
292,1,1,2,17,1.904567019,61440.3034,61442.2079,0,2.6009437,3
293,1,2,9,7,1.957498306,61444.8089,61446.7664,0,2.7199197,9
294,1,2,6,15,1.946611306,61449.4863,61451.4329,0,1.6313405,6
295,1,2,9,17,1.815872787,61453.0642,61454.8801,0,3.4922706,8
296,1,2,3,1,1.902194271,61458.3724,61460.2746,0,2.8707810,2
297,1,1,8,3,1.486200249,61463.1454,61464.6316,0,1.0406318,8
298,1,2,5,3,1.081136822,61465.6722,61466.7533,0,2.4705651,3
299,3,2,1,3,1.167410917,61469.2239,61470.3913,0,NaN,None
300,1,1,6,8,1.949867549,61474.3913,61476.3412,0,1.4842128,6
301,1,2,8,22,1.635392379,61477.8254,61479.4608,0,3.1335176,7
302,1,2,7,17,1.418974465,61482.5943,61484.0133,0,1.1791037,7
303,1,2,6,4,1.260847237,61485.1924,61486.4532,0,3.5800097,5
304,1,1,2,13,1.354963160,61490.0332,61491.3882,0,2.2580600,2
305,1,2,8,5,1.653448511,61493.6462,61495.2997,0,2.1438810,8
306,1,1,9,12,1.919684600,61497.4436,61499.3633,0,1.4052842,8
307,1,1,2,4,1.042479540,61500.7685,61501.8110,0,1.3887090,2
308,1,1,2,19,1.264354705,61503.1997,61504.4641,0,1.4555364,3
309,1,1,9,11,1.360737371,61505.9196,61507.2804,0,2.3966880,9
310,1,1,2,7,1.358478025,61509.6771,61511.0355,0,1.4004341,2
311,1,1,3,21,1.228214052,61512.4360,61513.6642,0,1.9355258,4
312,1,2,1,8,1.978721682,61515.5997,61517.5784,0,1.3076092,2
313,1,1,7,11,1.849096646,61518.8860,61520.7351,0,0.9387166,8
314,1,1,7,2,1.070395407,61521.6738,61522.7442,0,1.3880810,7
315,1,1,9,4,1.005670577,61524.1323,61525.1380,0,1.4716210,8
316,1,1,1,20,1.434143844,61526.6096,61528.0438,0,1.2214170,1
317,1,1,5,19,1.372660368,61529.2652,61530.6378,0,2.7385061,5
318,1,2,8,15,1.012293903,61533.3763,61534.3886,0,1.9643014,7
319,1,1,8,2,1.196121721,61536.3529,61537.5491,0,1.4993534,7
320,1,2,2,7,1.647223284,61539.0484,61540.6956,0,1.5237750,2
321,1,2,1,2,1.086308792,61542.2194,61543.3057,0,2.5863477,3
322,1,1,3,4,1.543667154,61545.8921,61547.4357,0,1.2740016,4
323,1,2,1,7,1.314895612,61548.7097,61550.0246,0,2.2291086,3
324,1,1,1,18,1.488591427,61552.2537,61553.7423,0,1.3671377,2
325,1,1,9,18,1.275823592,61555.1095,61556.3853,0,2.2358730,9
326,1,2,9,2,1.604356728,61558.6212,61560.2255,0,1.8911378,8
327,1,1,8,22,1.514790941,61562.1167,61563.6315,0,1.2192421,7
328,1,1,4,15,1.469405414,61564.8507,61566.3201,0,2.9480080,4
329,1,1,4,17,1.122366800,61569.2681,61570.3905,0,1.3492779,5
330,1,2,2,12,1.863195952,61571.7398,61573.6029,0,0.9473640,3
331,1,2,7,7,1.252405403,61574.5503,61575.8027,0,2.7227929,8
332,1,2,7,4,1.867989272,61578.5255,61580.3935,0,2.4558376,7
333,1,1,2,9,1.318899911,61582.8493,61584.1682,0,3.5591295,2
334,1,1,4,4,1.135644283,61587.7274,61588.8630,0,1.0725577,3
335,1,2,8,19,1.929604160,61589.9356,61591.8652,0,2.7601933,4
336,1,2,9,19,1.501376294,61594.6254,61596.1267,0,1.0970788,3
337,1,2,3,15,1.557301998,61597.2238,61598.7811,0,2.2136951,2
338,1,2,5,9,1.294828487,61600.9948,61602.2896,0,1.6874172,5
339,1,2,7,2,1.686452746,61603.9771,61605.6635,0,3.2682637,7
340,1,2,5,8,1.359749783,61608.9318,61610.2915,0,2.7013001,5
341,1,1,2,3,1.807950726,61612.9928,61614.8008,0,2.8675247,3
342,1,1,3,20,1.590885409,61617.6683,61619.2592,0,3.0376430,3
343,1,1,1,11,1.219326974,61622.2968,61623.5162,0,3.4817924,2
344,1,2,6,16,1.525219575,61626.9980,61628.5232,0,4.0000000,4
345,1,2,7,14,1.198160247,61632.5232,61633.7213,0,0.9891014,7
346,1,1,9,2,1.752028493,61634.7104,61636.4625,0,0.9625796,8
347,1,1,7,5,1.995665968,61637.4250,61639.4207,0,1.8355388,7
348,1,2,9,1,1.319254565,61641.2562,61642.5755,0,3.5666150,8
349,1,1,3,5,1.199691147,61646.1421,61647.3418,0,1.1236821,3
350,1,2,4,6,1.902262581,61648.4655,61650.3678,0,3.9994927,4
351,1,2,7,13,1.097171307,61654.3672,61655.4644,0,2.8148506,7
352,1,2,7,16,1.035085094,61658.2793,61659.3144,0,3.3577905,7
353,1,2,2,11,1.302442039,61662.6721,61663.9746,0,2.1682635,2
354,1,2,2,14,1.870825357,61666.1428,61668.0137,0,2.3103587,3
355,1,2,6,10,1.467355584,61670.3240,61671.7914,0,3.8152453,6
356,1,2,8,12,1.097840237,61675.6066,61676.7045,0,3.7518509,7
357,1,2,7,1,1.427952471,61680.4563,61681.8843,0,1.1887460,7
358,1,1,4,7,1.003557232,61683.0730,61684.0766,0,1.4611615,4
359,1,2,4,11,1.422361750,61685.5377,61686.9601,0,1.1873216,5
360,1,2,1,15,1.650496929,61688.1474,61689.7979,0,2.3819285,2
361,1,1,3,1,1.624482246,61692.1799,61693.8043,0,2.7142675,4
362,1,1,5,12,1.885036301,61696.5186,61698.4036,0,2.0128985,5
363,1,2,3,8,1.186650170,61700.4165,61701.6032,0,2.7341687,4
364,1,2,2,21,1.110800472,61704.3374,61705.4482,0,2.0759582,3
365,1,1,9,19,1.184544975,61707.5241,61708.7087,0,2.1222499,9
366,1,1,9,17,1.572534705,61710.8309,61712.4034,0,4.0000000,8
367,1,1,4,22,1.963590920,61716.4034,61718.3670,0,1.7677321,4
368,1,1,2,15,1.880688535,61720.1348,61722.0155,0,1.7729312,3
369,1,1,3,14,1.026620596,61723.7884,61724.8150,0,2.4074449,3
370,1,2,5,11,1.954964714,61727.2225,61729.1774,0,2.8295170,5
371,1,2,4,2,1.677032573,61732.0069,61733.6840,0,2.2259652,4
372,1,1,7,20,1.373014670,61735.9099,61737.2829,0,1.7217702,7
373,1,1,6,11,1.384205946,61739.0047,61740.3889,0,2.0232210,5
374,1,2,5,13,1.645421759,61742.4121,61744.0576,0,1.2641896,4
375,1,1,8,9,1.478950601,61745.3218,61746.8007,0,1.7719161,7
376,1,2,1,9,1.352004122,61748.5726,61749.9246,0,2.2846116,1
377,1,1,1,12,1.881669024,61752.2092,61754.0909,0,2.0805682,2
378,1,1,6,2,1.493857742,61756.1715,61757.6653,0,2.2176632,6
379,1,2,5,20,1.822779859,61759.8830,61761.7058,0,1.6132701,5
380,1,2,2,8,1.312720580,61763.3190,61764.6318,0,1.5641505,3
381,1,1,5,3,1.402454489,61766.1959,61767.5984,0,1.9801070,5
382,1,1,5,18,1.113048957,61769.5785,61770.6915,0,0.9564398,5
383,1,1,6,4,1.044765745,61771.6480,61772.6927,0,2.4617812,5
384,1,2,3,17,1.190460664,61775.1545,61776.3450,0,1.2589508,4
385,1,2,8,3,1.568948402,61777.6039,61779.1729,0,2.0427797,8
386,1,2,5,16,1.511198770,61781.2157,61782.7269,0,1.6779813,5
387,1,2,6,12,1.286799556,61784.4048,61785.6916,0,1.7156373,5
388,1,1,3,2,1.160695329,61787.4073,61788.5680,0,1.5621877,3
389,1,2,1,13,1.942589915,61790.1302,61792.0727,0,2.3626913,2
390,1,1,6,17,1.816040189,61794.4354,61796.2515,0,0.9659336,6
391,1,1,8,20,1.942241387,61797.2174,61799.1596,0,2.5541626,7
392,1,2,4,9,1.979545102,61801.7138,61803.6934,0,3.5535533,4
393,1,1,6,1,1.645745472,61807.2469,61808.8927,0,2.6970152,4
394,1,2,4,22,1.915390665,61811.5897,61813.5051,0,2.2769962,4
395,1,1,3,6,1.799053451,61815.7821,61817.5811,0,2.5373419,4
396,1,2,2,4,1.612448147,61820.1185,61821.7309,0,2.6813404,3
