ID,State,Position ID,Morph Step,Face Person,ITI,Trial_Onset,Stim_Onset,Stim_Offset,RT,Answer
1,1,2,7,20,1.29751639697258,170744.6635436,170745.9882429,0,2.18210050000926,5
2,1,2,7,5,1.9531265628736,170748.1725656,170750.1522237,0,2.3059831999999,7
3,1,1,6,1,1.68640914970378,170752.45938,170754.1680309,0,1.88460580000537,3
4,1,1,1,15,1.3633555215112,170756.0529502,170757.4371928,0,1.62102670001332,1
5,1,1,3,21,1.95461957604737,170759.0598581,170761.0392766,0,1.56310460000532,5
6,1,1,3,13,1.40355674561904,170762.6025009,170764.0245117,0,2.56183059999603,5
7,1,1,2,14,1.38899863226561,170766.586575,170767.9987282,0,1.3080837999878,1
8,1,1,5,10,1.25933426668769,170769.3072784,170770.5881677,0,2.54218859999673,4
9,1,1,5,7,1.58051406571637,170773.1311379,170774.7392977,0,1.47932559999754,5
10,1,1,9,6,1.58261010434943,170776.2187204,170777.8233238,0,2.24301480001304,7
11,1,1,3,6,1.86456796790675,170780.0664172,170781.9498844,0,3.0204561999999,4
12,1,2,5,20,1.81822046312444,170784.970387,170786.8163496,0,1.92996919999132,5
13,1,1,1,6,1.62586631928175,170788.7463652,170790.3989641,0,1.57169179999619,3
14,1,2,1,18,1.80096409343099,170791.9716668,170793.7970694,0,1.80526320001809,3
15,1,1,5,17,1.23760291864688,170795.6024004,170796.8639359,0,1.89841159997741,5
16,1,1,6,16,1.08745268432339,170798.7624224,170799.8731594,0,1.08107970000128,5
17,1,1,2,3,1.8718903595243,170800.9543158,170802.8503637,0,1.75222229998326,4
18,1,2,8,3,1.26958326740225,170804.6027902,170805.897238,0,1.52941689998261,6
19,1,1,7,22,1.31793121664121,170807.4267192,170808.7684227,0,1.41812640000717,6
20,1,1,3,15,1.54745463643823,170810.1866335,170811.7591331,0,2.73903430000064,3
21,1,1,6,12,1.16085030486812,170814.4982142,170815.68343,0,1.12756570000784,5
22,1,1,1,1,1.86196885123273,170816.811216,170818.6976756,0,1.36058370000683,3
23,1,1,4,20,1.91583192209245,170820.0583066,170821.9992511,0,1.17897310000262,5
24,1,2,3,11,1.88255755212952,170823.1782702,170825.0821413,0,2.06402449999587,3
25,1,2,6,2,1.34987359558085,170827.1462131,170828.5159673,0,3.47033830001601,5
26,1,1,5,5,1.56656025026994,170831.987438,170833.5767105,0,0.865935800014995,5
27,1,2,6,10,1.3057720854464,170834.4428933,170835.7739388,0,1.8844284999941,6
28,1,2,2,4,1.11818892770315,170837.6590551,170838.8003883,0,1.32310710000456,4
29,1,1,1,12,1.46221018698816,170840.123709,170841.61254,0,1.8536732000066,2
30,1,2,4,21,1.05864010550448,170843.4662619,170844.5485415,0,1.90963050001301,5
31,1,2,4,18,1.13463143570228,170846.4582189,170847.6186543,0,1.89553979999619,5
32,1,2,3,21,1.13920148408912,170849.514248,170850.6786271,0,1.27569999999832,4
33,1,2,2,16,1.38809339244762,170851.9545761,170853.3701462,0,2.28003210001043,3
34,1,2,9,19,1.32122544457613,170855.6502469,170856.9953683,0,1.95010379998712,7
35,1,2,5,7,1.2595616963688,170858.945519,170860.229454,0,1.01263600002858,5
36,1,1,7,18,1.08662996480237,170861.2421993,170862.3553275,0,1.3120493000024,6
37,1,1,2,22,1.10162821112962,170863.6678842,170864.7943488,0,2.11192180000944,1
38,1,2,9,12,1.01096915745197,170866.9063287,170867.9405344,0,2.41119310000795,8
39,1,1,4,6,1.62366949463227,170870.3517989,170871.9994191,0,0.826878499996383,5
40,1,1,9,3,1.03116166580249,170872.8263462,170873.8808804,0,1.34747430001153,7
41,1,1,5,21,1.83412460161256,170875.2284002,170877.0851955,0,1.16612270000041,5
42,1,1,1,16,1.49324112921648,170878.2516766,170879.7694857,0,2.39365819998784,3
43,1,1,3,11,1.75396701252911,170882.1632089,170883.9429469,0,1.78231419998338,3
44,1,1,8,10,1.26991194253142,170885.725306,170887.0199649,0,1.77481399997487,7
45,1,2,8,15,1.65987264847735,170888.794856,170890.4820843,0,1.59232110000448,7
46,1,2,9,5,1.04191934041753,170892.0744533,170893.1367378,0,2.73803619999671,8
47,1,1,6,7,1.23395278798347,170895.8749833,170897.1321256,0,1.27819329997874,5
48,1,2,7,12,1.21392381469659,170898.4103667,170899.6477878,0,1.38646989999688,6
49,1,2,2,19,1.15413601653136,170901.0343051,170902.2161689,0,1.17020860000048,4
50,1,2,6,5,1.83492327014336,170903.3864239,170905.2432003,0,0.687181299988879,5
51,1,2,8,18,1.62598150031854,170905.9304308,170907.5805726,0,1.14183949999278,6
52,1,1,3,10,1.74477220150739,170908.722467,170910.4899893,0,1.57632570000715,4
53,1,1,8,17,1.1213333371561,170912.0663815,170913.2135564,0,1.34773119998863,7
54,1,1,1,3,1.94581455645146,170914.5613636,170916.5288481,0,2.24155120001524,3
55,1,1,7,2,1.16501870734586,170918.7704467,170919.9590871,0,1.83626720000757,6
56,1,2,4,20,1.21007721135839,170921.7957366,170923.0302045,0,1.78056339998147,5
57,1,2,3,13,1.61702484748664,170924.8108592,170926.4547058,0,1.80381550002494,4
58,1,2,7,4,1.54567683103931,170928.2585706,170929.8285222,0,0.981942699989304,6
59,1,2,3,1,1.96026657337375,170930.8105329,170932.7938653,0,1.65691380001954,4
60,1,1,7,20,1.01655371974653,170934.4509099,170935.4915273,0,1.0470335999853,6
61,1,2,1,10,1.31910472587834,170936.5386702,170937.8841079,0,1.66219540001475,3
62,1,1,9,8,1.97605966141928,170939.54635,170941.5463404,0,1.15191290000803,7
63,1,1,4,2,1.12434001812646,170942.6983405,170943.8477804,0,0.986452699988149,5
64,1,2,8,11,1.12033832688028,170944.8342787,170945.9762813,0,1.25894119997974,7
65,1,2,2,20,1.00400924152084,170947.2357354,170948.2617459,0,2.18847009999445,3
66,1,1,7,7,1.78024516400599,170950.4502677,170952.2543897,0,1.23615459998837,6
67,1,1,5,16,1.8569359394307,170953.4906996,170955.3722761,0,0.966812300001038,5
68,1,1,3,17,1.89506722244056,170956.3392784,170958.2593352,0,1.43930969998473,3
69,1,2,7,1,1.49745346572282,170959.6991265,170961.2228459,0,1.37937370000873,6
70,1,2,3,22,1.91231305279452,170962.602266,170964.5400396,0,2.33420400001341,3
71,1,1,8,20,1.84420162696968,170966.8744576,170968.7433622,0,1.64307959997677,6
72,1,1,3,12,1.26343499057143,170970.3864917,170971.673775,0,0.784762099996442,5
73,1,2,1,6,1.55369241161659,170972.4586157,170974.0374288,0,1.70880440002657,4
74,1,1,4,14,1.63591127360209,170975.7462948,170977.4056652,0,0.677513600006932,5
75,1,1,2,13,1.60633148611424,170978.083226,170979.7128567,0,0.953692000010051,4
76,1,1,2,18,1.8981903678356,170980.6666216,170982.5851706,0,1.56957989998045,4
77,1,2,7,7,1.04922624518422,170984.1549306,170985.2224399,0,1.31615790000069,6
78,1,2,1,3,1.30527447829453,170986.5391816,170987.8692695,0,1.7090651000035,3
79,1,1,6,2,1.04354476134153,170989.57838,170990.6462824,0,0.845717699994566,5
80,1,1,2,4,1.74244017829379,170991.4920454,170993.2558843,0,1.18682300002547,4
81,1,1,7,9,1.4566610607947,170994.4427572,170995.9207309,0,2.10632740001893,6
82,1,1,6,3,1.81910151369835,170998.0271222,170999.8715095,0,0.868221300013829,5
83,1,2,9,21,1.38773392205701,171000.7397761,171002.149595,0,1.42646849999437,7
84,1,2,4,1,1.92741687065988,171003.5761113,171005.5282708,0,0.706070200016256,5
85,1,1,1,19,1.60551634300741,171006.2344007,171007.863117,0,2.5878851999878,3
86,1,1,7,5,1.45663263484592,171010.4512814,171011.9317328,0,0.982633200008422,6
87,1,1,8,16,1.85618329065849,171012.9144223,171014.7924129,0,2.76196130001335,6
88,1,2,1,9,1.66309353237491,171017.5544214,171019.2421459,0,2.68026600001031,2
89,1,1,7,11,1.02048192646667,171021.9225065,171022.9688319,0,1.90638209998724,6
90,1,2,9,4,1.69051168559153,171024.8757389,171026.5897002,0,2.30072939998354,7
91,1,1,7,21,1.75950397832266,171028.8904754,171030.6780696,0,1.55701449999469,6
92,1,2,4,14,1.15506054384292,171032.2351346,171033.4135542,0,0.788765300007071,5
93,1,1,9,16,1.0305156467949,171034.202365,171035.2544289,0,1.13205190000008,6
94,1,1,7,3,1.47856631684216,171036.3865496,171037.8880414,0,0.922302499995567,6
95,1,2,5,21,1.04666827120576,171038.8103915,171039.8815834,0,0.720873099984601,5
96,1,2,4,15,1.46813837150675,171040.6027405,171042.0936431,0,1.42066589999013,4
97,1,2,2,15,1.38460953872634,171043.5143806,171044.9273061,0,2.0913220999937,2
98,1,2,1,11,1.75532844951802,171047.0188116,171048.7979968,0,1.58955919998698,3
99,1,2,6,7,1.9269492140744,171050.3880805,171052.3388341,0,0.759729500015965,5
100,1,1,6,8,1.1221992098185,171053.0986117,171054.244525,0,0.734284600010142,5
101,1,2,1,21,1.19313131213625,171054.9789768,171056.1939791,0,1.51271049998468,3
102,1,2,8,13,1.84435425674947,171057.706737,171059.5750573,0,1.89920129999518,6
103,1,2,2,7,1.09304886850533,171061.4743061,171062.5910658,0,2.05122799999663,2
104,1,2,4,16,1.92944057243947,171064.6423423,171066.5974665,0,1.00574999998207,5
105,1,2,3,4,1.25377496224967,171067.6034342,171068.8823918,0,0.680409699998563,5
106,1,2,4,4,1.85961934204406,171069.5628832,171071.4458802,0,0.60512320001726,5
107,1,2,9,22,1.77042031647496,171072.0512202,171073.8458821,0,1.38041330000851,7
108,1,2,8,4,1.36551194554018,171075.2263417,171076.6167087,0,1.36965609999606,7
109,1,2,6,6,1.81714223732134,171077.9864204,171079.8291845,0,2.17357579999953,5
110,1,2,6,4,1.77416618491245,171082.0028852,171083.8007881,0,0.945919100020546,5
111,1,1,9,17,1.52243538046665,171084.746799,171086.2943849,0,1.71590629999992,8
112,1,1,4,18,1.5924124804615,171088.0103375,171089.6265807,0,0.799785800016252,5
113,1,1,8,3,1.86808083837036,171090.4264891,171092.3188932,0,2.65218600002117,6
114,1,1,1,4,1.21037320390048,171094.9714193,171096.2056267,0,1.63443780000671,2
115,1,2,1,17,1.38340435114834,171097.8401772,171099.2472831,0,1.46800490000169,1
116,1,2,6,3,1.10779990623806,171100.7153881,171101.8482392,0,0.770083300012629,5
117,1,1,6,10,1.71681921805318,171102.6183681,171104.3578543,0,0.742955699999584,5
118,1,2,5,19,1.09341621519235,171105.100869,171106.2164644,0,1.20224149999558,5
119,1,1,8,22,1.47593784824856,171107.418781,171108.9156858,0,1.97160770001938,7
120,1,2,3,14,1.64731143530452,171110.8873418,171112.5619606,0,1.53657170000952,2
121,1,1,8,18,1.54484015233548,171114.0986155,171115.6695622,0,2.37282369998866,6
122,1,1,2,2,1.4100504361178,171118.042446,171119.4766027,0,2.64430260000518,3
123,1,2,9,16,1.5632056401071,171122.1210063,171123.7077818,0,1.94101029998274,7
124,1,2,8,12,1.0980766047678,171125.6488988,171126.7716108,0,1.59079230000498,6
125,1,2,5,3,1.00262785154902,171128.3624644,171129.3885067,0,0.878007999999681,5
126,1,1,9,19,1.41135953671814,171130.2665694,171131.7024029,0,1.8120435999881,6
127,1,1,5,1,1.32039563499125,171133.5144955,171134.8580508,0,0.904436000011628,5
128,1,2,7,3,1.05554628309031,171135.7625369,171136.8407497,0,0.777897799998755,6
129,1,2,4,12,1.02553760335899,171137.6190039,171138.6694688,0,1.20537159999367,5
130,1,1,9,22,1.1385888345017,171139.8749738,171141.0378865,0,1.52458100000513,8
131,1,1,6,6,1.50248446045757,171142.5625368,171144.0895258,0,1.74495540000498,4
132,1,1,8,2,1.20258844942165,171145.8345597,171147.0602899,0,2.5422111999942,7
133,1,1,5,2,1.0440097635147,171287.9365835,171289.0114786,0,0.815262299991446,5
134,1,2,9,2,1.43050596559782,171289.8283395,171291.2824233,0,1.92017450000276,7
135,1,1,4,12,1.81370961750381,171293.202662,171295.0415905,0,0.8327548999805,5
136,1,1,3,1,1.65079973457509,171295.8744228,171297.5498553,0,1.88465370002086,4
137,1,2,8,20,1.51836954978153,171299.4345945,171300.9821508,0,1.00421199999982,6
138,3,2,1,20,1.89205433143454,171301.9864087,171303.900538,0,NaN,None
139,1,2,4,8,1.96684155076373,171307.9009722,171309.8885556,0,1.40190820000134,5
140,1,1,2,9,1.52093209591403,171311.2905213,171312.8355,0,1.39886420001858,3
141,1,1,6,5,1.94592337509034,171314.2344198,171316.2077341,0,0.738730000011856,5
142,1,1,8,1,1.69410948305945,171316.94651,171318.6655592,0,0.95287670000107,6
143,1,1,7,6,1.48258999037662,171319.6184851,171321.1249018,0,0.758282299997518,6
144,1,1,5,13,1.00312213091841,171321.8832963,171322.9074616,0,0.823489800008247,5
145,1,2,5,4,1.69691780824652,171323.7310416,171325.4526981,0,0.653930400003446,5
146,1,2,7,9,1.24203734403891,171326.1066813,171327.3744438,0,0.891978999978164,6
147,1,1,6,18,1.30152716127219,171328.2664715,171329.5916081,0,0.674868600006448,5
148,1,2,2,3,1.68927196615025,171330.2665273,171331.9789919,0,1.10341280000284,3
149,1,2,3,6,1.83567796724111,171333.08245,171334.9402677,0,1.81426680000732,3
150,1,2,9,15,1.87589695387266,171336.7545809,171338.6553149,0,2.00411739997799,8
151,1,1,9,12,1.61111584002625,171340.6594786,171342.2940211,0,1.45137639998575,7
152,1,2,6,22,1.50697378615995,171343.7455062,171345.2643702,0,0.786131300003035,5
153,1,1,5,12,1.28360413344729,171346.0505478,171347.3581242,0,0.828399599995464,5
154,1,2,3,16,1.96710664794517,171348.1865848,171350.1749913,0,0.628446999995504,5
155,1,1,7,16,1.00050728680164,171350.8041955,171351.8269421,0,0.679524300008779,5
156,1,2,5,18,1.1867899518498,171352.5065141,171353.7180741,0,0.764017399982549,5
157,1,2,6,18,1.46782068970287,171354.4821931,171355.9736474,0,0.880876699986402,5
158,1,2,7,17,1.38121382613529,171356.8545693,171358.2607845,0,1.32684059999883,7
159,1,1,4,5,1.43054067428712,171359.5880426,171361.0425271,0,0.664864699996542,5
160,1,2,4,10,1.25339481892961,171361.7077231,171362.9822174,0,0.695662500016624,5
161,1,2,1,12,1.7621096691959,171363.6779264,171365.4670118,0,1.17627649998758,2
162,1,2,9,14,1.32057916502153,171366.6433354,171367.988627,0,2.05392719997326,9
163,1,1,4,22,1.51072811392863,171370.0426012,171371.5744359,0,0.636204500013264,5
164,1,2,7,16,1.13947836003147,171372.2106904,171373.3731136,0,1.2213558999938,6
165,1,1,7,17,1.38049527238222,171374.5946498,171376.0025659,0,1.07195589999901,6
166,1,1,8,19,1.74909436815471,171377.0745796,171378.8450207,0,0.829465599992545,6
167,1,2,5,13,1.30490274928002,171379.6745333,171381.0007619,0,0.833761599991703,5
168,1,1,8,11,1.36896378571672,171381.8345718,171383.2248768,0,1.3458135999972,6
169,1,1,1,10,1.5901986682879,171384.5707375,171386.1882621,0,1.48661459999857,3
170,1,1,8,14,1.17624575812135,171387.6754781,171388.8733504,0,1.82530109997606,8
171,1,1,8,9,1.75795576096185,171390.6988388,171392.4781976,0,2.51629699999467,7
172,1,2,9,9,1.1967908926514,171394.9945437,171396.2148346,0,0.587779900000896,7
173,1,2,4,19,1.80492256172638,171396.8026629,171398.6300657,0,1.13249069999438,5
174,1,2,2,6,1.59862033307489,171399.7626458,171401.3849463,0,1.78556609997759,3
175,1,2,2,18,1.12768104825842,171403.1705913,171404.3201767,0,1.96315479997429,3
176,1,1,9,1,1.90720067648151,171406.2838768,171408.2147524,0,1.571655799984,7
177,1,2,8,17,1.77501376930831,171409.7864565,171411.588267,0,1.25415209998027,6
178,1,1,5,19,1.48050192727876,171412.8424896,171414.349879,0,0.764596200024243,5
179,1,1,2,17,1.87010796671022,171415.1145232,171417.0079265,0,1.07447180000599,3
180,1,1,8,13,1.18919316428701,171418.0824451,171419.295579,0,1.92293400000199,6
181,1,1,4,11,1.47225872836035,171421.2185585,171422.718926,0,0.699594900012016,5
182,1,2,6,14,1.69257310592137,171423.4185968,171425.1362084,0,1.11422039999161,6
183,1,1,9,20,1.70518271216057,171426.2504769,171427.9755776,0,1.22698730000411,7
184,1,1,8,4,1.39927277800956,171429.2026224,171430.6280379,0,1.28638010000577,7
185,1,2,4,2,1.94626913792672,171431.9144812,171433.8870473,0,0.684371899988037,5
186,1,1,6,22,1.53922951064687,171434.5716681,171436.1372243,0,0.69721019998542,5
187,1,1,9,9,1.75466688230379,171436.834489,171438.6086275,0,0.970229999977164,7
188,1,1,3,19,1.02588911205152,171439.5790374,171440.6292617,0,1.23719370001345,4
189,1,2,8,16,1.18360217565513,171441.866502,171443.0781151,0,1.74030209999182,6
190,1,2,1,22,1.65985099296895,171444.8184639,171446.5025607,0,1.89984759999788,1
191,1,2,6,9,1.74426090694429,171448.4024622,171450.1720407,0,0.774404900002992,5
192,1,2,2,2,1.87719467619842,171450.9465182,171452.8479405,0,1.30651629998465,3
193,1,1,3,2,1.34816035326856,171454.1547066,171455.5320639,0,0.846394399995916,4
194,1,1,2,12,1.70712947905874,171456.3785139,171458.1095919,0,1.10094900001423,2
195,1,2,9,1,1.32702182225238,171459.2105999,171460.5609967,0,2.67883099999744,8
196,1,1,3,3,1.02800934518279,171463.2398754,171464.2897242,0,1.70391680000466,4
197,1,1,9,10,1.46919198971428,171465.9937219,171467.4871,0,1.69945610000286,7
198,1,1,8,15,1.34621464146997,171469.1866029,171470.5532604,0,2.01298150001094,7
199,1,1,1,13,1.10786357910352,171472.5663672,171473.6984267,0,1.6790148,3
200,1,2,8,14,1.28830789873923,171475.3774867,171476.6873335,0,2.33120219997363,9
201,1,1,4,10,1.48724288800123,171479.0185818,171480.5333882,0,0.699762399977772,5
202,1,1,2,20,1.81365781586224,171481.2332618,171483.0707583,0,1.72433110000566,1
203,1,2,7,6,1.48262777671524,171484.7954821,171486.3033887,0,1.42732109999633,6
204,1,1,6,14,1.84907348497534,171487.7307791,171489.6026196,0,0.816046300024027,5
205,1,2,4,9,1.2718473757034,171490.4187213,171491.7144183,0,1.52854180001304,4
206,1,1,6,17,1.11525324859007,171493.2430399,171494.3826273,0,1.07649610002409,5
207,1,2,1,1,1.09951236333524,171495.4593272,171496.582248,0,1.26048870000523,2
208,1,1,9,18,1.85321971756596,171497.8428049,171499.7233302,0,1.82325779998791,7
209,1,1,1,11,1.25646564506311,171501.5466356,171502.8273289,0,1.0632454000006,2
210,1,2,9,6,1.91332617679308,171503.8906207,171505.8285625,0,1.5100809999858,7
211,1,2,3,15,1.15356489771391,171507.3386903,171508.5154928,0,2.51219680000213,3
212,1,2,2,10,1.24123778681902,171511.0280535,171512.2928956,0,1.72573189999093,4
213,1,1,1,8,1.58484014797082,171514.0186998,171515.6260351,0,1.96892720001051,1
214,1,2,3,2,1.43873915859054,171517.5950355,171519.0580357,0,1.23254060000181,4
215,1,2,5,11,1.2594755889513,171520.2906516,171521.5738073,0,0.644758699985687,5
216,1,1,5,15,1.35005485041657,171522.2186441,171523.592,0,2.57152160000987,5
217,1,2,5,22,1.91052783171004,171526.1635911,171528.0952692,0,0.667323199973907,5
218,1,2,6,21,1.65525164882978,171528.7626407,171530.4426708,0,0.759970500017516,5
219,1,2,6,19,1.58965859085541,171531.2027747,171532.8165449,0,0.778005000000121,5
220,1,1,1,20,1.94177276644352,171533.5945964,171535.5602863,0,1.81026600001496,1
221,1,2,1,4,1.73514285495677,171537.3706,171539.1308811,0,1.87235200000578,3
222,1,2,9,10,1.30146569144656,171541.0033158,171542.3289728,0,1.10563710000133,7
223,1,1,1,14,1.4368343589631,171543.4346876,171544.8990271,0,1.48752639998565,1
224,1,2,4,6,1.41253142550831,171546.3866286,171547.8213789,0,0.717243399994913,5
225,1,1,5,11,1.03828584532055,171548.5386697,171549.6021539,0,0.57622730001458,5
226,1,2,3,10,1.35770909173003,171550.1784533,171551.5595608,0,0.667084799992153,5
227,1,2,4,7,1.05570542228959,171552.2267125,171553.3063148,0,0.720247399993241,5
228,1,1,9,14,1.25503838324932,171554.0266083,171555.3033045,0,1.65919129998656,9
229,1,1,2,6,1.01461278166372,171556.9625685,171557.9997549,0,1.50671869999496,4
230,1,1,5,20,1.78944376451898,171559.5065221,171561.316104,0,0.598840799997561,5
231,1,2,1,16,1.78944288650528,171561.9150672,171563.7287152,0,1.18573399999877,3
232,1,2,1,13,1.56557972574452,171564.9144947,171566.5044347,0,1.25880209999741,2
233,1,1,7,1,1.12992411355143,171567.7633135,171568.921732,0,2.07275220000884,6
234,1,1,4,19,1.7630919022489,171570.9945322,171572.7825073,0,0.652456699986942,5
235,1,2,2,11,1.94319077414924,171573.435016,171575.401784,0,2.2356125000224,3
236,1,2,9,17,1.88304540128433,171577.6374989,171579.5443378,0,1.47849899998982,7
237,1,2,2,5,1.83258638216534,171581.0228826,171582.8828711,0,1.08829169999808,2
238,1,2,5,2,1.11494804259707,171583.971539,171585.1093272,0,0.685689299978549,5
239,1,1,6,9,1.02779168529357,171585.7952975,171586.8441144,0,1.25576759999967,5
240,1,2,6,17,1.3141484947535,171588.0999295,171589.4379841,0,1.88732300000265,5
241,1,2,1,19,1.58296559413387,171591.325353,171592.9293184,0,1.24129399997764,3
242,1,1,5,6,1.18343364325959,171594.1706774,171595.372761,0,1.05480209999951,4
243,1,2,6,1,1.97023415644982,171596.4276092,171598.4211301,0,0.679876499983948,5
244,1,2,2,22,1.97085563920187,171599.101111,171601.0918234,0,1.52657590000308,1
245,1,2,7,19,1.65708845425152,171602.6184444,171604.3031252,0,1.08368549999432,4
246,1,1,3,4,1.40989283724802,171605.386867,171606.817225,0,2.05730049998965,4
247,1,1,8,12,1.15653798313583,171608.8745788,171610.057064,0,2.04354480002075,7
248,1,2,3,12,1.07218583555311,171612.1006779,171613.1995949,0,2.03517119999742,3
249,1,2,9,3,1.00504632148796,171615.2348465,171616.260223,0,1.63878850001493,7
250,1,2,3,19,1.33007837993268,171617.8990568,171619.2528011,0,0.829792200005613,4
251,1,2,8,7,1.03012771688739,171620.0826407,171621.1352889,0,0.971355100016808,7
252,1,1,7,15,1.30723536714422,171622.1067162,171623.4382166,0,1.20437529997434,6
253,1,2,5,15,1.43163513915741,171624.6426405,171626.0980169,0,0.752695699979085,5
254,1,2,7,21,1.76233430772121,171626.8507636,171628.6360358,0,2.04667069998686,6
255,1,1,9,4,1.82070554095475,171630.6827542,171632.5243986,0,1.07833289998234,7
256,1,1,2,21,1.73841280191109,171633.6028003,171635.3669932,0,1.01962340000318,3
257,1,1,5,14,1.53933089750771,171636.386702,171637.950738,0,0.699882099987008,5
258,1,1,7,12,1.17840515162725,171638.6507018,171639.8555798,0,0.987128400010988,6
259,1,2,7,13,1.59203370723724,171640.8428299,171642.4592,0,1.35226159999729,6
260,1,2,3,18,1.90851135771629,171643.8119503,171645.7394679,0,1.30315239998163,4
261,1,1,1,2,1.08842852228216,171647.0427722,171648.1573471,0,0.853203000006033,3
262,1,2,2,17,1.80914194750232,171649.0105965,171650.8421763,0,1.12834939997992,3
263,1,2,9,7,1.63883518673257,171651.9705771,171653.6335355,0,1.16105819999939,7
264,1,1,1,7,1.85212435922634,171654.7946628,171656.6699242,0,1.13286920002429,3
265,1,2,8,19,1.82234533961314,171780.9361471,171782.788554,0,1.84609780000756,6
266,1,1,4,1,1.19962665499883,171784.6347019,171785.8530717,0,0.821585400000913,5
267,1,2,8,2,1.36500752652481,171786.6747107,171788.064005,0,2.2426531999954,7
268,1,2,6,11,1.41544984442631,171790.3067069,171791.7435892,0,1.77898830000777,5
269,1,2,3,20,1.3281362485909,171793.5236907,171794.8756686,0,2.61491540001589,2
270,1,2,7,11,1.04057415321635,171797.4906323,171798.5552214,0,1.64774000001489,6
271,1,2,2,21,1.57889039259897,171800.2030528,171801.8103623,0,1.58424910000758,3
272,1,1,3,16,1.06828754982599,171803.3946899,171804.4875603,0,1.30699149999418,3
273,1,1,3,20,1.01257357578229,171805.7945973,171806.8324761,0,1.21816229997785,2
274,1,1,9,11,1.81626727004467,171808.0507199,171809.8890954,0,1.52153009999893,7
275,1,2,5,8,1.93484951755166,171811.41071,171813.3691129,0,0.626209600013681,5
276,1,1,2,16,1.80745525134384,171813.9954757,171815.8249952,0,1.23358060000464,3
277,1,2,6,16,1.29593150383666,171817.0586303,171818.3812986,0,1.64567359999637,5
278,1,1,9,13,1.60164745207525,171820.027127,171821.6481876,0,2.61232510002446,6
279,1,2,3,3,1.333268095256,171824.2605652,171825.6188665,0,1.06419649999589,5
280,1,1,4,17,1.65187754710258,171826.6835567,171828.3627776,0,0.799658799980534,5
281,1,2,3,17,1.72018812020472,171829.1624815,171830.9027861,0,1.82793840000522,4
282,1,2,8,6,1.16292453714724,171832.7308225,171833.9191598,0,1.05589820002206,6
283,1,2,5,17,1.21505045427643,171834.9751047,171836.2164487,0,0.61153630001354,5
284,1,2,6,8,1.9967878186083,171836.8281943,171838.8472316,0,0.586671800003387,5
285,1,1,6,11,1.6983696609808,171839.4340118,171841.1546267,0,1.01764069998171,5
286,1,1,6,4,1.45672843808868,171842.1729265,171843.6561,0,1.01875079999445,6
287,1,1,7,10,1.0639451056274,171844.6749197,171845.7632475,0,0.759803699998884,6
288,1,2,4,11,1.13336108021406,171846.5231717,171847.6810549,0,0.585702200012747,5
289,1,1,9,7,1.5258278912235,171848.2668122,171849.8181876,0,1.02452629999607,7
290,1,1,9,5,1.57952124638696,171850.8427933,171852.4489499,0,0.826031900011003,7
291,1,2,1,8,1.29570934962472,171853.2750299,171854.5950448,0,1.11162179999519,3
292,1,2,8,21,1.01353754051859,171855.7067141,171856.7407984,0,1.18987790000392,7
293,1,2,8,9,1.66638983791462,171857.9307474,171859.6227437,0,1.14850070001557,7
294,1,1,9,21,1.57519373655284,171860.7713339,171862.3679468,0,0.770827400003327,7
295,1,1,3,9,1.34554789704983,171863.1388223,171864.5064832,0,1.2081716999819,3
296,1,2,2,9,1.39918238830243,171865.7147145,171867.1385172,0,1.12026330002118,2
297,1,1,3,7,1.2256106434872,171868.2589736,171869.5077254,0,1.09505959998933,3
298,1,2,8,1,1.42069040778585,171870.6028374,171872.0519627,0,0.958694200002356,7
299,1,1,6,19,1.27799108140605,171873.0107132,171874.313217,0,0.689581800019369,5
300,1,1,3,5,1.9100470532526,171875.0028723,171876.9367695,0,1.1301546000177,3
301,1,1,5,8,1.81214504555298,171878.0678826,171879.9024789,0,0.708198499982245,5
302,1,1,2,11,1.86324524913336,171880.6107605,171882.4968407,0,0.801854999997886,3
303,1,2,1,7,1.93816769540097,171883.2987716,171885.2597384,0,0.68688310001744,3
304,1,1,2,1,1.34522070389741,171885.9466864,171887.3177779,0,0.717566700011957,3
305,1,1,1,21,1.2678152759586,171888.0363255,171889.3332627,0,1.89335909998044,2
306,1,2,7,8,1.19803514800358,171891.226672,171892.4521627,0,0.734704600006808,5
307,1,1,9,2,1.28009012990928,171893.1869164,171894.4927114,0,1.77389789998415,7
308,1,1,1,5,1.61634256014023,171896.2666774,171897.9055089,0,0.697859300009441,3
309,1,1,2,19,1.65176432240568,171898.6036228,171900.2820492,0,1.09664370000246,4
310,1,1,8,6,1.29300447021351,171901.3787649,171902.696943,0,2.13045980001334,6
311,1,2,8,8,1.35087441347495,171904.8274933,171906.2020902,0,0.99284659998375,6
312,1,1,8,8,1.44697898878736,171907.1949841,171908.6629365,0,0.899769899988314,6
313,1,1,2,5,1.32275499020652,171909.5628931,171910.9111699,0,0.755517999990843,3
314,1,1,2,7,1.30802742454754,171911.666785,171912.9987479,0,0.883864599978551,3
315,1,2,7,18,1.75938780113529,171913.8826594,171915.6677409,0,1.10296979997656,5
316,1,2,4,17,1.31386343668896,171916.7707634,171918.1121786,0,0.898520900023868,5
317,1,1,7,4,1.60090309916032,171919.0107464,171920.6329792,0,1.7696200000064,6
318,1,1,5,9,1.39311153549088,171922.4026455,171923.8207248,0,0.829966399993282,5
319,1,1,4,15,1.68996514208791,171924.6507446,171926.360023,0,1.29876270002569,4
320,1,1,1,9,1.02720149222841,171927.6592124,171928.7103302,0,2.10836489999201,1
321,1,1,6,20,1.02898257900524,171930.8187416,171931.8718393,0,1.25076550000813,5
322,1,2,5,5,1.67059701425807,171933.1226595,171934.8200499,0,0.582588999997824,5
323,1,2,7,15,1.76334154205065,171935.4027498,171937.1923426,0,1.70802670001285,6
324,1,2,7,10,1.475096260314,171938.9004741,171940.3939449,0,1.04070450001745,6
325,1,2,1,2,1.42450661863023,171941.4347005,171942.8809679,0,1.08808509999653,3
326,1,2,1,15,1.4016176845915,171943.9691631,171945.3854432,0,1.23735469998792,2
327,1,1,1,22,1.10718165001322,171946.622899,171947.7528259,0,1.13823260000208,1
328,1,2,7,14,1.44983562428207,171948.8912038,171950.3620383,0,3.23383410001406,8
329,1,1,4,3,1.61759791606963,171953.595972,171955.2354486,0,1.13818830001401,5
330,1,1,8,7,1.72278050935293,171956.3736843,171958.1223334,0,1.1928607999871,7
331,1,1,5,18,1.82530012172635,171959.3153478,171961.1609376,0,0.793779999978142,5
332,1,1,4,21,1.77319582609552,171961.9547695,171963.7514836,0,0.675990599993384,5
333,1,1,3,22,1.23516636206243,171964.4275207,171965.6837455,0,1.17327510000905,3
334,1,2,5,1,1.90184723577067,171966.8570654,171968.7802842,0,0.630924500001129,5
335,1,2,7,22,1.19394268322332,171969.4112564,171970.6289952,0,0.88608799999929,6
336,1,2,4,13,1.40317061635253,171971.5153112,171972.9383913,0,0.641776200005552,5
337,1,1,4,13,1.49372535985793,171973.5805612,171975.1011559,0,0.638026600005105,5
338,1,1,4,7,1.47353902847669,171975.7392954,171977.2356304,0,0.615125699987402,5
339,1,2,7,2,1.45005604301788,171977.8508046,171979.3218332,0,0.76900349999778,6
340,1,1,6,13,1.41200367246206,171980.0908839,171981.524421,0,0.998343999992358,5
341,1,1,6,15,1.54396298864726,171982.5228122,171984.0886566,0,0.714282999979332,6
342,1,2,3,9,1.31981902908526,171984.803015,171986.1457594,0,1.05704649997642,3
343,1,2,4,5,1.48944019114768,171987.2028532,171988.7164916,0,0.550303800002439,5
344,1,2,6,12,1.47450181900544,171989.266852,171990.7648709,0,0.725886700005503,6
345,1,2,3,8,1.47893502802743,171991.490829,171992.994278,0,0.912654699990526,3
346,1,2,4,22,1.5102954277121,171993.9069818,171995.4428049,0,1.29596439999295,4
347,1,1,4,4,1.08536338694795,171996.7388168,171997.8475606,0,0.68349140000646,5
348,1,1,7,13,1.49237860683219,171998.5314298,172000.0485417,0,0.618201000004774,5
349,1,1,1,18,1.65517573160607,172000.6667968,172002.3451965,0,1.29755189997377,3
350,1,1,3,8,1.89819089664009,172003.6427948,172005.5637683,0,0.790909400006058,3
351,1,2,3,7,1.03383659527949,172006.3547244,172007.4110825,0,1.83269339997787,4
352,1,2,9,11,1.37980195255816,172009.2441483,172010.6477573,0,1.4669728000008,7
353,1,2,8,5,1.13897049369596,172012.1147778,172013.2776556,0,1.16499180000392,7
354,1,1,2,10,1.48981831948123,172014.4427103,172015.9576797,0,1.02968000000692,4
355,1,1,7,8,1.89973070498514,172016.9874103,172018.9164089,0,1.32667229999788,6
356,1,2,9,18,1.02005512977047,172020.2432638,172021.285506,0,1.04525070000091,7
357,1,1,9,15,1.68185853097076,172022.3308324,172024.0410696,0,1.07360869998229,7
358,1,1,1,17,1.27021126236782,172025.1147254,172026.4150062,0,0.948533699993277,3
359,1,2,9,20,1.0475446341812,172027.3636691,172028.4369663,0,0.974021399975754,7
360,1,2,5,9,1.28157113450063,172029.4113859,172030.7156597,0,0.80741319997469,5
361,1,1,2,8,1.26103920932303,172031.5231704,172032.8059108,0,1.47676200000569,3
362,1,1,4,8,1.10283538750941,172034.2827217,172035.4101065,0,0.728655499988236,5
363,1,2,3,5,1.93556804898703,172036.1388115,172038.0989109,0,1.28072519999114,6
364,1,1,8,21,1.6219759230575,172039.3801714,172041.0272514,0,1.37549880001461,7
365,1,1,5,3,1.99108441752278,172042.402802,172044.4167721,0,0.865913299989188,5
366,1,2,5,10,1.72546704573181,172045.2827324,172047.0324895,0,0.59415639998042,5
367,1,2,5,6,1.95418221117942,172047.6266982,172049.6051101,0,1.81355900000199,4
368,1,2,5,16,1.49393002356809,172051.4187161,172052.9378762,0,0.728814399975818,5
369,1,2,2,1,1.68475285027868,172053.6667452,172055.3749727,0,1.13967609999236,3
370,1,1,3,14,1.23317559036354,172056.5147034,172057.7758354,0,0.659105600003386,3
371,1,2,2,13,1.51957498697868,172058.4349888,172059.9795279,0,0.77264589999686,3
372,1,1,6,21,1.24642130241638,172060.752221,172062.0243884,0,0.941825200017774,5
373,1,1,5,4,1.1181585823879,172062.9663221,172064.1057063,0,0.673065299983136,5
374,1,2,2,12,1.73190329081466,172064.7788165,172066.5363482,0,0.778459399996791,3
375,1,2,1,14,1.07263544718561,172067.3149429,172068.4124004,0,2.03847490000771,2
376,1,1,5,22,1.19590561047643,172070.4509251,172071.6740905,0,0.673461400001543,5
377,1,2,1,5,1.59952011277946,172072.3476252,172073.9746891,0,1.04408640001202,2
378,1,1,7,19,1.51271163434529,172075.018821,172076.5504856,0,0.641297399997711,5
379,1,1,3,18,1.46329254413204,172077.1918288,172078.6780738,0,1.74217790001421,4
380,1,2,2,14,1.16270490678552,172080.4202982,172081.6041537,0,1.44117010000627,1
381,1,1,8,5,1.58187579753041,172083.0453724,172084.6541797,0,1.40700929999002,7
382,1,2,4,3,1.58557436877577,172086.0612343,172087.6664757,0,0.688282299990533,5
383,1,2,5,14,1.76978017445891,172088.3548069,172090.1464819,0,0.896362699975725,5
384,1,2,9,8,1.97434410704866,172091.0428916,172093.0440256,0,1.28689640000812,8
385,1,1,2,15,1.49936686384591,172094.3310212,172095.8547064,0,1.38806880000629,2
386,1,2,6,13,1.05712343271547,172097.2428298,172098.3217224,0,0.672941900003934,5
387,1,2,2,8,1.45472528054245,172098.9947122,172100.4743902,0,0.976599500019802,2
388,1,1,4,16,1.74325942440125,172101.4510445,172103.2139735,0,1.04494339998928,4
389,1,2,6,20,1.01150626531598,172104.2589659,172105.2936555,0,0.997503799997503,5
390,1,2,6,15,1.77547026486241,172106.2912614,172108.0904159,0,1.11263410001993,7
391,1,1,4,9,1.06555999981738,172109.2033648,172110.2917263,0,1.38323050001054,4
392,1,1,7,14,1.49986841239073,172111.6751868,172113.2018257,0,1.88907219999237,8
393,1,2,5,12,1.26851054251682,172115.0909453,172116.3824827,0,0.64449850001256,5
394,1,2,9,13,1.41291497432146,172117.0270289,172118.4596088,0,1.74318160000257,6
395,1,2,8,10,1.05299039065709,172120.2028382,172121.2800716,0,0.666720600012923,6
396,1,2,8,22,1.0163358199425,172121.9468709,172122.9868493,0,0.791836499993224,6
