ID,State,Position ID,Morph Step,Face Person,ITI,Trial_Onset,Stim_Onset,Stim_Offset,RT,Answer
1,1,1,2,17,1.11734994610377,1278073.4339938,1278074.574327,0,0.844699500128627,1
2,1,1,3,9,1.49431016754865,1278075.4199492,1278076.940236,0,1.19880629982799,1
3,1,2,6,9,1.8649915289897,1278078.1400405,1278080.0268723,0,1.18433269998059,4
4,1,2,1,22,1.61130079431115,1278081.2116278,1278082.8412882,0,1.22584239998832,1
5,1,2,2,2,1.2520377066971,1278084.0686956,1278085.3401872,0,1.38300809985958,2
6,1,1,7,22,1.0892581467904,1278086.7235253,1278087.8363453,0,1.3828944999259,6
7,1,1,7,9,1.4419142395778,1278089.2192882,1278090.6812595,0,0.76997569995001,7
8,1,2,7,13,1.03805427978994,1278091.4512839,1278092.5131416,0,1.25799940014258,6
9,1,2,9,21,1.1208602713602,1278093.7711922,1278094.9118638,0,1.29126870003529,8
10,1,2,6,6,1.60838213415177,1278096.2031821,1278097.8339757,0,1.09718149993569,4
11,1,2,6,11,1.50853546805949,1278098.9312069,1278100.4633624,0,1.00386020005681,5
12,1,2,8,12,1.37518105407351,1278101.4672703,1278102.864788,0,1.09837980009615,7
13,1,1,6,19,1.78376002800797,1278103.9632148,1278105.771151,0,0.92801499995403,5
14,1,1,9,5,1.93206329828928,1278106.6992125,1278108.6443675,0,0.72680880012922,9
15,1,1,3,1,1.39857762282981,1278109.3712254,1278110.7937863,0,1.39345309999771,3
16,1,2,6,22,1.46701983284938,1278112.1872883,1278113.6734937,0,1.42574519990012,6
17,1,2,5,19,1.23312222696909,1278115.0992868,1278116.3508229,0,1.38832999998704,4
18,1,2,2,17,1.28528670817784,1278117.7392015,1278119.0436827,0,0.831457499880344,1
19,1,1,2,9,1.68492771140827,1278119.8751872,1278121.5827799,0,1.26853750017472,1
20,1,2,2,20,1.85482255929456,1278122.8523891,1278124.7262947,0,1.25348620000295,2
21,1,2,3,16,1.61543897421911,1278125.9798316,1278127.6141566,0,1.34104219987057,4
22,1,1,6,5,1.7051144503972,1278128.9552466,1278130.6830364,0,1.35207649995573,6
23,1,1,6,10,1.41792794258002,1278132.0351618,1278133.47333,0,1.20190630014986,5
24,1,2,9,4,1.88539075310438,1278134.6752858,1278136.5776188,0,1.32158160000108,7
25,1,2,1,16,1.12547175345098,1278137.8992487,1278139.0452178,0,0.942254000110552,1
26,1,2,9,2,1.42284266312107,1278139.9875868,1278141.4313451,0,1.18791069998406,4
27,1,1,4,21,1.64145207428328,1278142.6193547,1278144.2833663,0,1.69608739996329,4
28,1,1,4,19,1.2896964293354,1278145.9795003,1278147.2934055,0,1.14998320001177,6
29,1,2,8,13,1.96805473386125,1278148.4434352,1278150.4336583,0,1.42555720009841,6
30,1,1,3,8,1.25147723114912,1278151.85934,1278153.1344179,0,1.18102530017495,3
31,1,2,7,4,1.7171277668113,1278154.3156583,1278156.0549225,0,1.28417860018089,5
32,1,1,1,8,1.31037369312116,1278157.3391495,1278158.6714481,0,0.675687200156972,2
33,1,2,7,12,1.0158390420133,1278159.3471847,1278160.3841014,0,0.980269500054419,6
34,1,1,4,13,1.34602155945123,1278161.3644171,1278162.7293179,0,1.02577769989148,5
35,1,1,5,7,1.35130902219682,1278163.7551427,1278165.1265578,0,1.00437769992277,4
36,1,2,7,20,1.15944279346741,1278166.1309831,1278167.3113648,0,0.899937700014561,7
37,1,2,1,10,1.02800857665296,1278168.2113517,1278169.2602174,0,0.775015899911523,1
38,1,2,6,16,1.79554373694673,1278170.0352806,1278171.8500828,0,1.07314800005406,5
39,1,2,4,10,1.59693054068373,1278172.9234089,1278174.544772,0,0.610296499915421,5
40,1,2,2,7,1.24408901081693,1278175.1551166,1278176.4218605,0,0.925256799906492,2
41,1,2,8,2,1.08211222455194,1278177.3471656,1278178.4488863,0,0.738292300142348,6
42,1,2,4,2,1.93189368911286,1278179.187422,1278181.1338324,0,1.37363529996946,4
43,1,2,3,3,1.6217737263398,1278182.5075154,1278184.1521319,0,1.24299570010044,4
44,1,1,6,21,1.69250833409734,1278185.3951772,1278187.1077038,0,1.00758189987391,6
45,1,2,7,22,1.30496944825966,1278188.1153347,1278189.4425593,0,1.08861159998924,7
46,1,2,1,6,1.59101605343581,1278190.5312179,1278192.1409872,0,1.03827010001987,3
47,1,1,2,6,1.14996502507754,1278193.1794306,1278194.3487081,0,1.02252400014549,2
48,1,1,2,12,1.76472292570854,1278195.3712811,1278197.1599922,0,0.651089099934325,1
49,1,1,4,2,1.73713156346543,1278197.8111298,1278199.5682453,0,1.0752181999851,5
50,1,1,2,21,1.6684881054994,1278200.6435916,1278202.3297915,0,1.02549590007402,3
51,1,1,1,6,1.98201764185155,1278203.355338,1278205.3564851,0,1.29469330003485,3
52,1,2,4,3,1.13667220089447,1278206.6512273,1278207.8060689,0,1.03732599993236,5
53,1,1,9,16,1.59911611468891,1278208.8435312,1278210.4622171,0,0.75715470011346,9
54,1,1,1,21,1.14160933358024,1278211.21955,1278212.3817577,0,1.13354310020804,3
55,1,1,6,4,1.9750718021305,1278213.5153507,1278215.5107421,0,1.27657290012576,4
56,1,1,9,8,1.24612357135546,1278216.7873629,1278218.0568449,0,0.819774700095877,9
57,1,1,3,20,1.65568111389953,1278218.8775395,1278220.5573391,0,1.12593960016966,3
58,1,1,9,15,1.63510641683715,1278221.6833259,1278223.3373033,0,0.858017900027335,9
59,1,1,6,13,1.88945244478997,1278224.1953689,1278226.1032931,0,0.89204250019975,5
60,1,1,2,4,1.46772297192527,1278226.9953833,1278228.4860339,0,1.32516660005786,4
61,1,1,5,21,1.86702787870187,1278229.8112484,1278231.7009613,0,0.982214000076056,5
62,1,1,2,15,1.06947545980051,1278232.6832234,1278233.7743702,0,1.10890590003692,1
63,1,1,6,9,1.86570156314517,1278234.8833228,1278236.771565,0,0.703717999858782,5
64,1,1,7,13,1.85034777413907,1278237.4753364,1278239.3482854,0,1.47902640001848,7
65,1,1,9,3,1.95307395981482,1278240.8273596,1278242.8016671,0,1.38565139984712,8
66,1,1,4,7,1.96508004573003,1278244.1873668,1278246.1743299,0,1.86094569996931,4
67,1,2,4,4,1.43851226121369,1278248.0353308,1278249.496276,0,1.41907040006481,4
68,1,2,2,11,1.21750448738439,1278250.9153956,1278252.1551802,0,0.768128599971533,1
69,1,1,1,11,1.56712256682538,1278252.9233606,1278254.5099635,0,0.717332599917427,1
70,1,1,8,10,1.06302225598321,1278255.2273431,1278256.3140597,0,0.945120600052178,9
71,1,1,1,10,1.73132485516342,1278257.2592287,1278259.0144332,0,0.964881099993363,1
72,1,1,4,15,1.82182290085291,1278259.9793618,1278261.8263072,0,0.912975599989295,5
73,1,1,9,1,1.15413568589954,1278262.73933,1278263.9177091,0,1.09159799991176,9
74,1,1,3,4,1.18449524622397,1278265.0093544,1278266.2180787,0,1.18593440018594,4
75,1,2,9,8,1.43681839728839,1278267.4041252,1278268.8613276,0,0.725733600091189,9
76,1,2,5,22,1.19755853611547,1278269.5871096,1278270.8097725,0,0.809207299957052,5
77,1,2,2,6,1.59430838880788,1278271.6190276,1278273.2326705,0,1.41080710012466,4
78,1,2,6,5,1.61187978126596,1278274.6435263,1278276.2769194,0,1.18489579996094,5
79,1,1,9,7,1.20209241962987,1278277.4618685,1278278.6832212,0,0.831940799951553,9
80,1,2,3,2,1.95821021125459,1278279.5152083,1278281.497526,0,1.18240910000168,3
81,1,1,8,19,1.26198208578184,1278282.6802088,1278283.9658075,0,1.16565319988877,7
82,1,1,8,15,1.72358812553703,1278285.1316687,1278286.8764241,0,0.94357439992018,9
83,1,1,3,21,1.36580474597586,1278287.8200528,1278289.2120831,0,0.967117199907079,4
84,1,1,5,3,1.4380776433021,1278290.1792491,1278291.638704,0,1.04447799990885,5
85,1,2,1,21,1.01769841373009,1278292.68323,1278293.7280248,0,1.25907839997672,2
86,1,1,7,5,1.22106051094951,1278294.98715,1278296.2308102,0,1.38029499980621,7
87,1,1,6,16,1.97737950428854,1278297.6111539,1278299.6090888,0,1.1380529999733,6
88,1,2,1,5,1.27015219465153,1278300.7471901,1278302.040793,0,1.38634480000474,3
89,1,1,2,7,1.23312488648919,1278303.4271845,1278304.6807052,0,1.22644250001758,2
90,1,2,8,17,1.82985794514394,1278305.9071956,1278307.7594702,0,1.395673800027,8
91,1,2,8,11,1.38994433760055,1278309.1551903,1278310.564626,0,1.40647940011695,8
92,1,2,6,13,1.21976016151118,1278311.9711537,1278313.210891,0,1.22425809991546,6
93,1,2,3,10,1.96417765860823,1278314.4351973,1278316.4218426,0,1.08527550008148,4
94,1,2,7,14,1.18364747690399,1278317.5071678,1278318.7097943,0,1.0934578999877,7
95,1,2,7,7,1.60825696988425,1278319.8032998,1278321.4344652,0,0.880851600086316,6
96,1,2,2,16,1.38077157456464,1278322.3153675,1278323.7199475,0,1.09947140002623,3
97,1,2,7,21,1.69894687110417,1278324.8194666,1278326.54211,0,1.15722739999183,7
98,1,1,9,2,1.56729072414399,1278327.6993856,1278329.2912244,0,0.896018999861553,9
99,1,1,5,18,1.53766685437186,1278330.1872903,1278331.7488636,0,1.03100550011732,5
100,1,1,8,14,1.53780288995335,1278332.7799202,1278334.3350756,0,0.684223199961707,9
101,1,2,4,21,1.7942666850474,1278335.0193459,1278336.836638,0,0.910633799852803,5
102,1,1,8,7,1.69050546760452,1278337.7473224,1278339.4573716,0,1.02600529999472,7
103,1,1,2,10,1.10122749221849,1278340.4834245,1278341.6062035,0,1.28506739996374,1
104,1,1,4,1,1.12543277641357,1278342.891318,1278344.0361506,0,1.52712400001474,4
105,1,2,8,18,1.02352201502626,1278345.5633278,1278346.6103658,0,1.24934809980914,7
106,1,1,2,2,1.28286862068785,1278347.8598244,1278349.1662149,0,0.925169199937955,1
107,1,2,8,14,1.71288497700542,1278350.0914347,1278351.8248743,0,0.794749799882993,9
108,1,2,1,17,1.91422991675829,1278352.6196743,1278354.5546434,0,0.736713499994949,1
109,1,2,4,8,1.73632458342693,1278355.2914108,1278357.0504804,0,1.22483920003287,6
110,1,1,4,11,1.02177460652716,1278358.2753683,1278359.3169697,0,1.03840860002674,5
111,1,1,2,18,1.09774587544631,1278360.3554267,1278361.4718871,0,1.1554548998829,2
112,1,2,4,13,1.51848346385811,1278362.6273905,1278364.165257,0,1.35010550008155,5
113,1,2,5,1,1.69309111467129,1278365.5154096,1278367.2311617,0,1.47622659988701,3
114,1,2,9,17,1.09159513650019,1278368.7074522,1278369.8182347,0,1.35316519998014,8
115,1,2,8,6,1.67451860272874,1278371.1714483,1278372.8698441,0,1.28563640010543,8
116,1,1,9,9,1.30740071625045,1278374.1555303,1278375.481838,0,0.777975700097159,9
117,1,2,1,15,1.46510439651631,1278376.2598653,1278377.7472123,0,0.704251499846578,1
118,1,2,6,21,1.19141174469006,1278378.451512,1278379.6633614,0,1.41992930020206,6
119,1,2,6,1,1.24731448475227,1278381.083338,1278382.3485865,0,1.53505649999715,4
120,1,1,5,14,1.81468267480892,1278383.8836897,1278385.7216907,0,0.977619800018147,5
121,1,1,4,20,1.59579109002412,1278386.6993601,1278388.3182243,0,1.66099570016377,4
122,1,2,8,9,1.76060754012624,1278389.9792693,1278391.7595077,0,1.24512639991008,6
123,1,2,4,18,1.69011310636204,1278393.0046814,1278394.7177237,0,1.41357830003835,4
124,1,2,5,4,1.93349097575411,1278396.1313487,1278398.0872886,0,1.27628720016219,4
125,1,2,2,9,1.06724335892497,1278399.3638358,1278400.4536619,0,0.966838499996811,2
126,1,1,9,11,1.04536986065116,1278401.4217535,1278402.4882399,0,1.03525900002569,8
127,1,1,6,2,1.72018435168254,1278403.5236679,1278405.2678935,0,1.03135669999756,5
128,1,2,9,14,1.26672277790819,1278406.2992958,1278407.5912426,0,0.812795599922538,9
129,1,1,5,8,1.90026379450443,1278408.404231,1278410.3213896,0,1.01793530001305,6
130,1,1,4,12,1.20757443539641,1278411.3393729,1278412.5641897,0,0.799176499946043,6
131,1,1,7,1,1.11198404005557,1278413.3635251,1278414.4980326,0,0.705566399963573,6
132,1,2,3,9,1.02146444506662,1278415.2038124,1278416.2489912,0,0.91429360001348,2
133,1,1,7,11,1.08221073309136,1278541.913997,1278543.0226273,0,1.91672400012612,6
134,1,1,9,12,1.50673368268437,1278544.9406512,1278546.4695739,0,0.885637399973348,7
135,1,1,5,13,1.4884370286218,1278547.3552573,1278548.868949,0,1.03034429997206,4
136,1,1,4,18,1.95495746634571,1278549.8993417,1278551.8765702,0,0.934982099803165,4
137,1,2,4,19,1.15069745437781,1278552.8117226,1278553.9846346,0,1.02664679987356,3
138,1,1,2,3,1.26677257430027,1278555.01133,1278556.3022594,0,0.869003599975258,2
139,1,1,7,10,1.88635548127539,1278557.17131,1278559.0811594,0,1.06617789994925,6
140,1,1,1,12,1.98174303243349,1278560.1473845,1278562.1522127,0,1.00325039983727,1
141,1,1,1,4,1.81210424983421,1278563.1555132,1278564.9863537,0,1.10491809993982,3
142,1,2,3,22,1.61929456800581,1278566.0913955,1278567.7291117,0,0.794292700011283,2
143,1,1,1,20,1.80409097074258,1278568.5234544,1278570.3499102,0,0.685540999984369,1
144,1,1,3,16,1.95520449358595,1278571.0354987,1278573.0155314,0,1.22796289995313,6
145,1,1,6,1,1.1891456798798,1278574.2435422,1278575.4554541,0,0.996041800128296,6
146,1,2,2,19,1.31258125913122,1278576.4515436,1278577.787769,0,1.34357129991986,4
147,1,1,1,1,1.87835297083463,1278579.1313866,1278581.0289923,0,1.06246650009416,2
148,1,2,7,19,1.30372951525594,1278582.091513,1278583.4150759,0,0.892214299878106,6
149,1,1,8,1,1.60364014967229,1278584.3075639,1278585.9366948,0,1.09881610004231,8
150,1,1,7,19,1.89287180611732,1278587.0355632,1278588.9527635,0,1.16295110015199,7
151,1,1,1,14,1.77405393265362,1278590.1158407,1278591.9121116,0,0.763385500060394,1
152,1,1,5,9,1.46930307394484,1278592.675544,1278594.1681996,0,1.06729490007274,4
153,1,2,6,7,1.37207974496541,1278595.2355415,1278596.6300682,0,1.06135690002702,6
154,1,1,1,15,1.60481306405292,1278597.6914733,1278599.312048,0,0.731335100019351,1
155,1,1,8,6,1.63447108268435,1278600.0434291,1278601.6980851,0,0.962314200121909,7
156,1,2,6,15,1.74191102432431,1278602.6604493,1278604.4235004,0,1.01198289985768,6
157,1,2,4,1,1.62287644963298,1278605.4355295,1278607.0801655,0,1.1553609999828,4
158,1,2,3,17,1.54177459542921,1278608.2355748,1278609.7999955,0,0.915442900033668,1
159,1,2,6,3,1.53110450200998,1278610.7154841,1278612.270504,0,1.30093700019643,6
160,1,1,5,22,1.41720628350108,1278613.5714891,1278615.0063097,0,0.725081300130114,5
161,1,1,9,19,1.90498163539421,1278615.7314365,1278617.6588313,0,1.12860450008884,7
162,1,2,5,11,1.31879255941516,1278618.787482,1278620.1287372,0,1.17882599984296,5
163,1,2,1,11,1.79038788169797,1278621.3076129,1278623.1186475,0,0.860667099943385,1
164,1,2,9,5,1.26619607446557,1278623.9793636,1278625.2661354,0,0.978574200067669,9
165,1,2,8,7,1.99107354822008,1278626.2447565,1278628.2563515,0,1.21891299984418,8
166,1,1,8,11,1.12862089217948,1278629.4753114,1278630.627362,0,1.03224239987321,7
167,1,1,3,7,1.01543407171779,1278631.659654,1278632.6961792,0,1.21941399993375,3
168,1,1,9,17,1.96569619794955,1278633.9156504,1278635.9062878,0,0.736993300030008,9
169,1,1,5,2,1.8114095244553,1278636.6433324,1278638.4792567,0,1.25201470009051,4
170,1,1,6,22,1.7502513486778,1278639.731323,1278641.5039649,0,1.14780819998123,6
171,1,1,5,1,1.64985034239946,1278642.651965,1278644.3217743,0,1.0735625999514,1
172,1,2,2,1,1.51086670074515,1278645.3953839,1278646.9288538,0,1.01854379987344,1
173,1,2,3,11,1.99675533386523,1278647.9474481,1278649.9663657,0,1.3971770000644,3
174,1,1,7,18,1.4445114368588,1278651.363591,1278652.8349288,0,0.960469900164753,6
175,1,1,8,16,1.56483030997965,1278653.7954463,1278655.3815192,0,1.15785559988581,8
176,1,1,9,22,1.47000058362609,1278656.5394226,1278658.0264335,0,0.913107400061563,9
177,1,1,1,7,1.10832068560733,1278658.9395896,1278660.0703195,0,0.829343299847096,1
178,1,2,2,3,1.67632750889171,1278660.8999751,1278662.6006224,0,1.26686800015159,3
179,1,2,3,8,1.87590051955648,1278663.8677087,1278665.7625803,0,1.20868659997359,2
180,1,2,4,16,1.98863322271666,1278666.9713134,1278668.9798239,0,1.15984430001117,6
181,1,1,9,4,1.48287588680009,1278670.1397538,1278671.6408917,0,0.938456200063229,9
182,1,2,4,6,1.96289802902881,1278672.5793981,1278674.5646318,0,1.26271240017377,4
183,1,2,4,7,1.41381080279602,1278675.8273923,1278677.2589961,0,1.27285600011237,4
184,1,1,8,2,1.94492452548762,1278678.5319017,1278680.4962699,0,1.08328320016153,7
185,1,2,4,22,1.42026007082653,1278681.5796066,1278683.018987,0,0.664441999979317,5
186,1,1,4,8,1.84187456300795,1278683.6834798,1278685.5439763,0,1.08371050003916,6
187,1,1,3,17,1.96403475848574,1278686.6277348,1278688.6124638,0,0.935628999955952,3
188,1,1,8,18,1.4951544337576,1278689.5481564,1278691.068143,0,1.00770880002528,7
189,1,1,7,3,1.44401472646673,1278692.075926,1278693.5414648,0,0.854941400000826,6
190,1,2,4,12,1.94931683629437,1278694.3964601,1278696.3623885,0,1.15325380000286,6
191,1,2,9,3,1.92492574055163,1278697.5157056,1278699.4629935,0,0.997298399917781,7
192,1,2,8,22,1.76630958249445,1278700.4604285,1278702.2504611,0,0.881005800096318,7
193,1,1,5,11,1.59458568166073,1278703.1315371,1278704.7444539,0,0.987223899923265,5
194,1,1,1,13,1.18288133870809,1278705.7317282,1278706.9330025,0,0.8387645999901,1
195,1,2,7,5,1.70416117082263,1278707.772142,1278709.500308,0,0.967189599992707,7
196,1,2,5,5,1.73891643040673,1278710.4675436,1278712.2331352,0,1.11436129990034,5
197,1,1,1,18,1.95560514419917,1278713.3475432,1278715.3203038,0,1.451239899965,2
198,1,1,8,9,1.25019607943634,1278716.7715947,1278718.0392208,0,1.06831550016068,8
199,1,2,6,10,1.22603694534849,1278719.1075843,1278720.3577411,0,0.909831600030884,6
200,1,1,5,15,1.9771397979014,1278721.2676237,1278723.2663609,0,0.83318050019443,4
201,1,1,3,2,1.62837820808033,1278724.0995877,1278725.7488115,0,1.06273380015045,4
202,1,2,7,10,1.72309511649756,1278726.8115913,1278728.5526604,0,0.762929499847814,6
203,1,2,2,21,1.5012405519883,1278729.3156376,1278730.8381102,0,0.90947650000453,3
204,1,2,5,2,1.80417814688177,1278731.7476339,1278733.5753223,0,0.916272500064224,5
205,1,1,2,19,1.22239318889713,1278734.4916409,1278735.7375244,0,1.21797419991344,4
206,1,1,8,12,1.46674785773267,1278736.9555444,1278738.4447616,0,0.926712199812755,7
207,1,2,2,13,1.79475010002011,1278739.3715209,1278741.1887524,0,1.23114209994674,4
208,1,1,6,8,1.33029172394022,1278742.4199416,1278743.7738021,0,0.958311999915168,6
209,1,2,9,1,1.13297532742042,1278744.7321615,1278745.8848609,0,1.11770120006986,8
210,1,1,4,5,1.20031757568894,1278747.0026074,1278748.2215637,0,1.11000110022724,5
211,1,1,5,4,1.23527695885293,1278749.3316113,1278750.5900335,0,1.33376389998011,6
212,1,1,1,16,1.29323929085621,1278751.923921,1278753.2400421,0,1.34780640015379,2
213,1,2,4,15,1.40575871582035,1278754.5879801,1278756.0144055,0,0.853044100105762,3
214,1,2,1,18,1.47846430083564,1278756.8674984,1278758.3650903,0,0.990535299992189,1
215,1,2,8,1,1.93115258542763,1278759.3557767,1278761.3099853,0,1.13591119996272,7
216,1,2,7,17,1.93490249031767,1278762.4459464,1278764.4010542,0,0.818256400059909,6
217,1,1,3,15,1.39452284650533,1278765.2193565,1278766.6333722,0,1.10654189996421,4
218,1,1,2,22,1.44080432104972,1278767.7400065,1278769.2002883,0,1.07526880013756,2
219,1,1,8,22,1.87927555732685,1278770.2756048,1278772.1738934,0,1.15755730005912,6
220,1,2,8,10,1.65828976198304,1278773.3314968,1278775.0130459,0,0.846340199932456,6
221,1,1,3,14,1.31109993032771,1278775.8594376,1278777.1910457,0,1.19630999979563,3
222,1,1,2,1,1.70914034603304,1278778.3874021,1278780.1175563,0,1.14180009998381,2
223,1,2,7,9,1.02491600445437,1278781.2594019,1278782.3047678,0,0.98660030006431,7
224,1,2,6,2,1.82496383715036,1278783.2914149,1278785.1399559,0,0.839463000185788,5
225,1,2,2,15,1.7945316358935,1278785.9794651,1278787.7972562,0,0.990087499842048,3
226,1,1,6,18,1.38417134179214,1278788.7873919,1278790.1948247,0,0.968592700082809,6
227,1,2,7,16,1.66751223287393,1278791.1634636,1278792.8548923,0,1.28458860004321,7
228,1,1,5,17,1.67694493029789,1278794.1395282,1278795.8389552,0,1.08450410002843,4
229,1,2,4,17,1.34907640991152,1278796.9235072,1278798.2951357,0,1.32423210004345,4
230,1,1,4,17,1.86244747496664,1278799.6194156,1278801.5054777,0,1.12211070000194,5
231,1,1,6,14,1.00888471798154,1278802.6276361,1278803.6559138,0,1.15561129990965,6
232,1,1,8,8,1.05102882400926,1278804.8115714,1278805.8848275,0,1.41464600013569,7
233,1,2,8,19,1.14171715698129,1278807.2995214,1278808.463295,0,1.26824380015023,7
234,1,2,5,21,1.44601083057332,1278809.7315863,1278811.2009373,0,1.17865779995918,5
235,1,1,2,14,1.58910680902006,1278812.3796411,1278813.9947234,0,1.04074450000189,2
236,1,2,9,12,1.26280840430574,1278815.0355141,1278816.3212359,0,0.954256600001827,7
237,1,2,5,8,1.59398285786444,1278817.2755395,1278818.8878199,0,1.01982209994458,6
238,1,2,6,17,1.38084632615927,1278819.9076895,1278821.3120668,0,0.803461899980903,6
239,1,2,9,19,1.377050518567,1278822.1155769,1278823.5165982,0,0.942909999983385,7
240,1,2,3,1,1.61145512462356,1278824.4595585,1278826.0970607,0,1.10655619995669,3
241,1,1,3,10,1.32800585475736,1278827.203665,1278828.5559085,0,1.11964370007627,3
242,1,1,3,5,1.49585486662728,1278829.6756003,1278831.1937004,0,1.31382120004855,5
243,1,2,7,1,1.67760490767873,1278832.5075689,1278834.2087324,0,1.03492229990661,6
244,1,2,3,18,1.07720888905382,1278835.2437025,1278836.3425926,0,1.03694500005804,3
245,1,2,3,7,1.51507091375456,1278837.3795857,1278838.914593,0,0.993059400003403,3
246,1,2,6,18,1.24393715389774,1278839.9076993,1278841.1751029,0,1.23664409993216,6
247,1,2,5,18,1.91005016059051,1278842.4117938,1278844.3412182,0,0.894385899882764,6
248,1,1,4,14,1.71817233015743,1278845.2356515,1278846.9760889,0,1.41964770015329,4
249,1,1,7,6,1.60826428701467,1278848.3958774,1278850.0296345,0,1.04601130005904,7
250,1,1,5,5,1.69769085834944,1278851.0756938,1278852.7930483,0,0.882581099867821,5
251,1,2,7,6,1.97177397847237,1278853.6756768,1278855.6692261,0,1.07832830003463,7
252,1,1,3,3,1.38992893996046,1278856.7476022,1278858.1567507,0,1.014809000073,3
253,1,2,4,11,1.42933734020348,1278859.1716064,1278860.6236415,0,0.747887999983504,5
254,1,1,6,15,1.13338956801668,1278861.3715801,1278862.5273355,0,0.764050099998713,6
255,1,1,6,7,1.4447369736136,1278863.2914302,1278864.7601105,0,0.615787199931219,6
256,1,2,9,16,1.64909084552304,1278865.3759463,1278867.0443847,0,1.20199110009708,8
257,1,1,4,4,1.06868366711162,1278868.2464229,1278869.3317624,0,1.35200090007856,4
258,1,2,6,20,1.19012296707243,1278870.6838114,1278871.8954963,0,0.811995700001717,6
259,1,2,4,5,1.78285309812638,1278872.7075399,1278874.5133195,0,0.786518400069326,5
260,1,2,5,14,1.54173809557608,1278875.2998875,1278876.8625079,0,1.01315489993431,5
261,1,2,9,7,1.83908240568761,1278877.8757095,1278879.7380912,0,1.05484600015916,8
262,1,2,8,5,1.74234197604528,1278880.7930292,1278882.5585139,0,1.06117370002903,9
263,1,2,6,12,1.05630914262329,1278883.6199648,1278884.6991245,0,1.30682700010948,6
264,1,1,8,4,1.04617996519056,1278886.0059973,1278887.0753487,0,0.952677400084212,7
265,1,2,4,9,1.68994965468593,1279038.9846706,1279040.708919,0,0.990840599872172,4
266,1,1,9,14,1.31061970017322,1279041.6998286,1279043.0325873,0,0.826999499928206,9
267,1,2,5,6,1.54935694651024,1279043.8596333,1279045.4322126,0,0.699519299902022,5
268,1,2,9,22,1.09488482927362,1279046.131779,1279047.2499768,0,0.793665000004694,6
269,1,2,1,12,1.06652652226051,1279048.0436865,1279049.131483,0,0.888243600027636,1
270,1,1,5,19,1.27522569211964,1279050.0197756,1279051.3144483,0,0.65730409999378,5
271,1,1,6,6,1.28177289969858,1279051.9718018,1279053.2742034,0,1.06574470014311,4
272,1,1,7,17,1.14293136688865,1279054.3399947,1279055.5057179,0,0.73019289993681,6
273,1,2,3,13,1.96310016642592,1279056.2359591,1279058.223129,0,0.860504499869421,4
274,1,1,1,22,1.51574884174705,1279059.0836789,1279060.6238457,0,0.932115900097415,2
275,1,2,2,5,1.91503160192759,1279061.5560183,1279063.4947037,0,1.24506659992039,3
276,1,2,4,14,1.08626572123742,1279064.7398177,1279065.8492758,0,0.834352900041267,5
277,1,1,9,6,1.06465889984183,1279066.6836771,1279067.7660715,0,0.974063100060448,8
278,1,1,7,15,1.29580843252826,1279068.7402314,1279070.0590562,0,0.928555199876428,7
279,1,2,5,17,1.49417587798273,1279070.9876574,1279072.5055432,0,0.802236599847674,5
280,1,2,5,9,1.51151750674724,1279073.3078479,1279074.8427098,0,0.569298699963838,5
281,1,2,3,4,1.68127536523075,1279075.4120552,1279077.1156165,0,0.992138399975374,4
282,1,1,3,18,1.8859296527393,1279078.107803,1279080.0156685,0,1.15612559998408,3
283,1,1,2,16,1.94681443109587,1279081.1718403,1279083.1400513,0,0.863684100098908,3
284,1,2,5,20,1.53095969016355,1279084.0037854,1279085.5555132,0,0.896563500165939,6
285,1,1,8,21,1.25134652821597,1279086.4521275,1279087.7231823,0,1.01656569982879,8
286,1,2,9,18,1.21941553136892,1279088.7397942,1279089.9852317,0,0.843200800009072,8
287,1,1,7,12,1.04277016337828,1279090.828566,1279091.895812,0,0.804097100161016,7
288,1,2,2,12,1.07227684282979,1279092.6999569,1279093.7924593,0,0.939423100091517,3
289,1,1,4,16,1.811726607606,1279094.7319317,1279096.5632339,0,0.784468500176445,5
290,1,1,6,11,1.4860547026284,1279097.3477487,1279098.8555916,0,1.00468009989709,6
291,1,2,1,2,1.68311587602021,1279099.8603202,1279101.5637675,0,1.09257830004208,2
292,1,1,2,13,1.72585854776054,1279102.6563936,1279104.4043353,0,0.903499600011855,3
293,1,1,3,13,1.7668064009665,1279105.3081255,1279107.095004,0,0.900606600102037,3
294,1,1,4,3,1.01294273247007,1279107.9956573,1279109.0298518,0,1.29689119989052,5
295,1,2,7,8,1.76848879974785,1279110.3267885,1279112.1195576,0,1.02801469992846,6
296,1,1,6,20,1.67762262106784,1279113.1476201,1279114.8460415,0,0.717937899986282,6
297,1,2,2,8,1.91795510927054,1279115.5640256,1279117.5046942,0,0.931029100203887,2
298,1,1,3,6,1.13335309995655,1279118.435769,1279119.5921883,0,0.935977699933574,4
299,1,2,3,21,1.82252201192116,1279120.5284257,1279122.3736889,0,0.861887300154194,4
300,1,2,6,4,1.3529993903624,1279123.2356229,1279124.6118618,0,0.791799899889156,6
301,1,1,1,3,1.98565224721935,1279125.4037078,1279127.4125203,0,1.0549962001387,1
302,1,2,6,8,1.05823629100734,1279128.4675609,1279129.5448606,0,0.930872099939734,6
303,1,2,7,11,1.42159056917749,1279130.4757798,1279131.9218661,0,0.913712800014764,6
304,1,2,2,22,1.31479811482869,1279132.8356269,1279134.1738151,0,0.902074699988589,1
305,1,2,6,19,1.31486761810463,1279135.0760317,1279136.4154406,0,1.39623980014585,6
306,1,1,1,9,1.71479529288118,1279137.8117268,1279139.5447648,0,1.31495060003363,1
307,1,2,8,4,1.11464956647482,1279140.8597672,1279141.9957007,0,1.2478865000885,8
308,1,1,9,10,1.06974050188527,1279143.243633,1279144.3356579,0,0.899986299918965,9
309,1,2,1,20,1.92378173127622,1279145.23569,1279147.183363,0,1.0121925000567,1
310,1,1,1,5,1.17252550909017,1279148.1956015,1279149.3900811,0,0.765778200002387,1
311,1,1,2,8,1.27150147867992,1279150.1563155,1279151.4512013,0,0.728535000002012,1
312,1,2,3,14,1.09906077605844,1279152.1797854,1279153.299089,0,1.37720589991659,5
313,1,2,2,10,1.99463833841615,1279154.6763419,1279156.689687,0,1.01784520014189,4
314,1,2,8,3,1.80586177732427,1279157.7075785,1279159.5375746,0,0.802108699921519,6
315,1,1,3,22,1.01610894078443,1279160.3397316,1279161.3802023,0,0.991626300150529,4
316,1,2,8,20,1.40353063450474,1279162.371876,1279163.7987971,0,0.98576179984957,7
317,1,1,4,6,1.09996744770634,1279164.7846071,1279165.9039403,0,0.803791899932548,5
318,1,2,3,20,1.88756901091168,1279166.7077823,1279168.6195638,0,1.19113039993681,3
319,1,1,7,20,1.73336364577985,1279169.8108575,1279171.5618356,0,0.938053099904209,6
320,1,1,3,19,1.56804465017858,1279172.5000119,1279174.0895935,0,0.946129000047222,4
321,1,2,1,7,1.22176064666123,1279175.0357696,1279176.2836149,0,0.768218700075522,1
322,1,1,6,17,1.65611377928184,1279177.0518814,1279178.7319656,0,0.7837564998772,5
323,1,2,3,19,1.22345607115609,1279179.5157695,1279180.7579265,0,1.05380080011673,4
324,1,2,9,9,1.88619966442005,1279181.8117754,1279183.7214202,0,1.15430489997379,8
325,1,2,5,3,1.66068473420447,1279184.8757714,1279186.5544628,0,0.753741499967873,5
326,1,2,2,18,1.97825975702842,1279187.3082501,1279189.3085721,0,0.991397799924016,2
327,1,2,1,14,1.98819131364464,1279190.3000199,1279192.3104317,0,0.605360300047323,1
328,1,2,7,3,1.95060209235752,1279192.9158386,1279194.8907587,0,0.889080900000408,6
329,1,1,9,13,1.56269129619718,1279195.7798974,1279197.3648674,0,0.734869800042361,7
330,1,2,8,21,1.42466374193175,1279198.0997824,1279199.5485092,0,0.815285499906167,8
331,1,1,5,10,1.39466457855093,1279200.363842,1279201.7795723,0,0.752339400118217,5
332,1,1,2,11,1.83677694272193,1279202.5319625,1279204.3890217,0,1.09473040001467,2
333,1,1,7,8,1.08940025522971,1279205.4837987,1279206.5939389,0,1.01795540004969,7
334,1,1,1,19,1.81595464696664,1279207.6120467,1279209.4510302,0,0.984821999911219,3
335,1,1,7,16,1.18286162440965,1279210.4358986,1279211.6403842,0,0.979489299934357,6
336,1,2,5,15,1.94374324670513,1279212.6199192,1279214.5862101,0,0.770001699915156,5
337,1,1,7,7,1.84666701184793,1279215.3564343,1279217.2233817,0,0.852446099976078,6
338,1,2,7,2,1.91228987770044,1279218.0758735,1279220.0119252,0,1.06391340005212,6
339,1,1,5,16,1.0525892072156,1279221.0758843,1279222.1508472,0,0.691610999871045,5
340,1,1,8,17,1.32843786481863,1279222.8425049,1279224.1901531,0,1.17374080000445,7
341,1,1,9,18,1.64983633052849,1279225.3639388,1279227.0364872,0,1.00556199997663,6
342,1,2,1,19,1.24620729494451,1279228.0420969,1279229.3077369,0,1.11294350004755,3
343,1,2,8,8,1.91279885012427,1279230.4207249,1279232.3522714,0,0.903537500184029,7
344,1,1,4,10,1.46004128869921,1279233.2558557,1279234.7400479,0,0.735822800081223,5
345,1,1,5,12,1.19707265195842,1279235.4760506,1279236.6944607,0,0.717280399985611,5
346,1,2,6,14,1.23843217472495,1279237.4117869,1279238.6727702,0,0.843094100011513,5
347,1,1,1,17,1.31161574955675,1279239.5160339,1279240.8533072,0,0.866305900039151,1
348,1,2,2,14,1.84547981731214,1279241.7196578,1279243.5896211,0,0.550241199787706,1
349,1,2,1,3,1.46153526359624,1279244.1399087,1279245.6267467,0,0.738478400046006,1
350,1,1,6,12,1.44767824506402,1279246.365272,1279247.8293425,0,0.926265399903059,6
351,1,2,1,4,1.54453081370335,1279248.7556624,1279250.3195334,0,1.07625690009445,2
352,1,1,6,3,1.5715968624887,1279251.3958418,1279252.9875306,0,0.736082499846816,5
353,1,1,5,6,1.56987140218356,1279253.7236608,1279255.3170646,0,1.15059299999848,4
354,1,2,5,13,1.74295553586135,1279256.4677059,1279258.2296984,0,0.846181100001559,5
355,1,1,2,20,1.45880768845121,1279259.0762462,1279260.5582778,0,0.805663299979642,1
356,1,2,8,16,1.86068721562762,1279261.3639859,1279263.2428055,0,0.832851799903437,6
357,1,2,7,18,1.79690125215784,1279264.075703,1279265.8921018,0,0.815560899907723,6
358,1,1,9,20,1.95305759123121,1279266.7077071,1279268.6825639,0,0.849304799921811,7
359,1,1,8,5,1.45870293680662,1279269.5320884,1279271.0142441,0,0.965426399838179,8
360,1,1,3,11,1.70657949320963,1279271.9797336,1279273.70529,0,0.946358900051564,3
361,1,2,9,13,1.95517869124943,1279274.6516952,1279276.6313218,0,1.1003368999809,7
362,1,2,5,7,1.2126839839068,1279277.7317042,1279278.9667479,0,1.00500819995068,6
363,1,1,4,9,1.7470010002355,1279279.971804,1279281.7389402,0,0.960861600004137,4
364,1,1,7,4,1.5096940574995,1279282.6998484,1279284.2318833,0,1.14784489991143,7
365,1,2,3,5,1.24746439706032,1279285.379793,1279286.6508125,0,1.06507940008305,6
366,1,2,1,9,1.83095057828948,1279287.715941,1279289.569481,0,0.954539699945599,1
367,1,2,4,20,1.50580357710942,1279290.5242082,1279292.0480169,0,0.811968000140041,5
368,1,2,9,11,1.11953394051209,1279292.8600335,1279294.0007854,0,0.915104400133714,7
369,1,2,8,15,1.06140062803613,1279294.9159369,1279296.0001405,0,1.01973009994254,8
370,1,2,3,6,1.77467646039672,1279297.0199166,1279298.8224949,0,1.02195969992317,6
371,1,1,9,21,1.18304490760691,1279299.8448401,1279301.0483387,0,0.891426999820396,8
372,1,1,8,3,1.02271077840334,1279301.9398139,1279302.9854081,0,1.02649870002642,7
373,1,2,9,6,1.00770487839059,1279304.0119588,1279305.0418299,0,0.769974500173703,8
374,1,1,2,5,1.76938210438706,1279305.8118542,1279307.6000135,0,1.25227870000526,3
375,1,1,3,12,1.88116098055684,1279308.8523444,1279310.7532169,0,1.08251189999282,4
376,1,1,7,14,1.25689145169607,1279311.8357762,1279313.1111861,0,0.780586499953642,6
377,1,2,1,8,1.62377522414375,1279313.8918178,1279315.5409096,0,0.734931899933144,1
378,1,2,3,15,1.23941849985006,1279316.2758881,1279317.5375829,0,0.962266199989244,3
379,1,1,7,2,1.95180503877661,1279318.4998961,1279320.4731347,0,0.786660500103608,6
380,1,2,5,16,1.75175536667699,1279321.2598396,1279323.0352149,0,0.696645499905571,5
381,1,1,1,2,1.42110583919001,1279323.7319066,1279325.1760831,0,0.939709899947047,1
382,1,1,8,20,1.9014981514746,1279326.1158402,1279328.040037,0,0.963752799900249,6
383,1,1,4,22,1.94455959160542,1279329.0038372,1279330.9715044,0,1.00038430001587,5
384,1,1,8,13,1.09749389174821,1279331.9719347,1279333.0887107,0,1.06714800000191,6
385,1,2,5,12,1.88713689766682,1279334.1559104,1279336.06241,0,0.845481999916956,5
386,1,2,1,13,1.90286329837419,1279336.90794,1279338.8312682,0,1.18861910002306,3
387,1,2,5,10,1.15821044865608,1279340.0199333,1279341.2021642,0,0.665571100078523,5
388,1,2,9,10,1.7332820157989,1279341.8677811,1279343.6196891,0,1.25605119997635,7
389,1,2,7,15,1.13913177270182,1279344.8758548,1279346.0345369,0,0.921225900063291,7
390,1,2,1,1,1.46152914349794,1279346.9558158,1279348.4367878,0,0.847086100140586,2
391,1,2,2,4,1.73389117559641,1279349.2839196,1279351.0423397,0,1.00428209989332,3
392,1,1,7,21,1.00302578151385,1279352.0466764,1279353.0718409,0,1.28022910002619,6
393,1,2,3,12,1.17067206698673,1279354.35212,1279355.5461778,0,1.23371000005864,4
394,1,2,9,15,1.99107286389322,1279356.7800233,1279358.7925809,0,1.07456219987944,8
395,1,2,9,20,1.11109038685173,1279359.8671903,1279360.9971509,0,0.895233599934727,9
396,1,1,5,20,1.40204526645538,1279361.8925208,1279363.3148905,0,0.745036500040442,5
