ID,State,Position ID,Morph Step,Face Person,ITI,Trial_Onset,Stim_Onset,Stim_Offset,RT,Answer
1,1,2,7,18,1.5857407399732,66247.281419,66248.8750737,0,3.12034360000689,6
2,1,1,1,20,1.19981091541527,66251.9969585,66253.2079825,0,1.32336850000138,2
3,1,2,2,14,1.06737468250683,66254.5323042,66255.6110566,0,1.297000999999,3
4,1,2,4,5,1.42313969136241,66256.9090819,66258.3432158,0,1.42100930000015,6
5,1,1,2,8,1.75602076084342,66259.7664228,66261.5339878,0,1.37697310000658,1
6,1,2,2,8,1.0130901446888,66262.9122485,66263.9359098,0,1.39688870000828,1
7,1,2,4,22,1.75351699660159,66265.3333383,66267.0985723,0,1.62544479999633,4
8,1,2,7,14,1.71106330851099,66268.7241425,66270.4465076,0,1.27897020000091,7
9,1,2,5,4,1.18589095052582,66271.7256378,66272.9212537,0,1.61033789999783,5
10,1,1,3,20,1.08627127941573,66274.5316496,66275.6278442,0,1.44503299999633,3
11,1,2,2,6,1.45737511129938,66277.0730194,66278.5412402,0,1.39327450000565,4
12,1,1,5,2,1.03779910435745,66279.934617,66280.9828815,0,1.83825600000273,5
13,1,1,6,15,1.27875641737685,66282.8212604,66284.1095619,0,1.78784340000129,6
14,1,2,3,8,1.03668826983509,66285.8974802,66286.9438073,0,1.43523779998941,1
15,1,2,6,21,1.93760328463459,66288.379184,66290.3281438,0,2.05278759999783,3
16,1,2,6,17,1.00480252666954,66292.3810132,66293.3953316,0,2.73271979999845,3
17,1,2,3,9,1.32637517682123,66296.1281849,66297.4652733,0,1.37987580000481,2
18,1,2,6,20,1.35794384751618,66298.8452703,66300.2138165,0,1.59224769999855,5
19,1,2,7,11,1.67907297384578,66301.8061862,66303.4976131,0,3.68135509999411,7
20,1,1,1,5,1.36442189005771,66307.1790872,66308.5548004,0,2.431144400005,2
21,1,1,9,20,1.85453923210823,66310.9860772,66312.8517028,0,1.93635779999022,8
22,1,2,1,2,1.27704622974615,66314.7881932,66316.0756724,0,3.10447920000297,2
23,1,1,2,4,1.51731608319875,66319.1802856,66320.7082241,0,1.34361979999812,4
24,1,1,1,19,1.33249625492616,66322.051966,66323.3958161,0,2.63832339999499,2
25,1,1,1,1,1.77643989710808,66326.0342703,66327.8230532,0,2.39879690000089,1
26,1,1,3,21,1.49099922331059,66330.2219485,66331.7240379,0,1.59994499999448,3
27,1,2,6,7,1.54860965742529,66333.3241544,66334.8840284,0,1.93103389999305,7
28,1,1,2,2,1.0177972282499,66336.8151808,66337.8436859,0,1.3325407999946,3
29,3,1,1,4,1.64712365111754,66339.1763803,66340.8351434,0,NaN,None
30,1,2,5,1,1.71772037133111,66344.8355052,66346.5648652,0,1.64118940000481,4
31,1,1,4,5,1.61172612075891,66348.2061714,66349.8288609,0,1.52503819999401,5
32,1,1,8,5,1.52087200036814,66351.3540198,66352.8860097,0,1.71339459999581,8
33,1,2,6,13,1.20808055202507,66354.5995225,66355.8184871,0,3.48372160000145,5
34,1,1,9,14,1.54830564314234,66359.3023478,66360.8611125,0,1.69317659999069,9
35,1,2,7,10,1.47173728798638,66362.5544062,66364.0366463,0,2.35547520000546,7
36,3,2,5,18,1.12883573901701,66366.3922349,66367.532057,0,NaN,None
37,1,2,8,5,1.97838510153678,66371.5323197,66373.5210301,0,1.69456449999416,8
38,1,1,8,2,1.06747836298953,66375.2156987,66376.2945657,0,1.5926085000101,7
39,1,1,9,15,1.96489726659326,66377.8873025,66379.8639446,0,1.9051199999958,9
40,1,2,4,11,1.18150306396372,66381.7691749,66382.9623783,0,1.86378830000467,4
41,1,2,1,8,1.45147751607459,66384.8263502,66386.289175,0,1.08385370000906,1
42,1,1,2,18,1.11249291326953,66387.3731667,66388.4966582,0,2.99282629998925,3
43,1,2,9,22,1.11796748235153,66391.4896222,66392.6184761,0,1.91259339998942,7
44,1,1,9,6,1.93554211653803,66394.5311533,66396.4776859,0,3.12153269999544,7
45,1,2,6,14,1.78778705080774,66399.5993314,66401.3985443,0,1.62768839999626,6
46,1,1,7,10,1.32295762507734,66403.0263592,66404.3604683,0,3.02424179999798,6
47,1,1,4,17,1.85498837985993,66407.3848481,66409.249394,0,2.09211800000048,2
48,1,1,9,4,1.04612050243948,66411.3416365,66412.398338,0,2.36436390000745,9
49,1,1,9,13,1.26430572966212,66414.7628508,66416.0374373,0,2.00718100000813,7
50,1,2,8,16,1.89583886640977,66418.0447495,66419.95125,0,1.99542799999472,8
51,1,1,3,4,1.40086676804313,66421.9468075,66423.3579739,0,2.55110409999907,3
52,1,2,1,5,1.86380750648122,66425.9092111,66427.7831276,0,1.47316819999833,1
53,1,1,8,3,1.50733779655303,66429.2564004,66430.7750752,0,1.65891490000649,7
54,1,1,3,13,1.34202006673337,66432.4341223,66433.787649,0,1.68224719999125,3
55,1,1,4,2,1.88919884496214,66435.4700108,66437.3711969,0,1.86613890000444,3
56,1,2,6,6,1.6754670318454,66439.2374715,66440.9232887,0,3.04155850000097,6
57,3,1,7,16,1.72912787715282,66443.9649849,66445.7054931,0,NaN,None
58,1,2,8,17,1.57056213710486,66449.7056829,66451.2860392,0,1.85964080000122,7
59,1,1,1,15,1.72416596247033,66453.1458371,66454.8816843,0,1.90601070001139,2
60,1,1,9,1,1.80995031859866,66456.7878384,66458.6108418,0,1.47877230000449,8
61,1,2,7,8,1.89289865341221,66460.0897568,66461.9929866,0,2.73976810000022,6
62,1,1,8,1,1.29704935634435,66464.7329132,66466.0415012,0,1.16292780000367,7
63,1,1,9,12,1.57670938328683,66467.2045505,66468.7928857,0,1.70542019999993,7
64,1,1,2,10,1.95427530699595,66470.4984557,66472.4629377,0,1.73495750001166,3
65,1,2,6,2,1.54830500765479,66474.197973,66475.7563864,0,1.67468589999771,4
66,1,1,2,17,1.53821101573321,66477.4312211,66478.9798639,0,1.12700310000218,3
67,1,1,8,16,1.63728936816024,66480.1070053,66481.7544214,0,1.42936840000039,7
68,1,1,8,4,1.41930416063877,66483.1839946,66484.6132633,0,1.83365820000472,2
69,1,2,1,9,1.55698392179691,66486.4470416,66488.0143183,0,3.42041920000338,1
70,1,2,6,18,1.2593261596425,66491.4348237,66492.7043456,0,3.93258420001075,4
71,1,2,6,11,1.61556429187186,66496.6370919,66498.263269,0,3.43136039999081,5
72,1,1,2,15,1.15264105175855,66501.694805,66502.8583354,0,3.60998280000058,2
73,3,2,5,11,1.32510357493355,66506.4685,66507.8041107,0,NaN,None
74,1,1,4,16,1.16369608334495,66511.8042999,66512.9787565,0,1.99403309999616,4
75,1,2,3,6,1.17302360878316,66514.9729166,66516.1562151,0,3.21878670000297,4
76,1,2,6,10,1.68488036776107,66519.375123,66521.0706112,0,1.87152899999637,5
77,1,1,5,5,1.00952521707417,66522.942302,66523.9627541,0,2.70655190000252,5
78,1,2,6,8,1.42386215733034,66526.6694158,66528.1028707,0,1.8785241000005,8
79,1,2,3,18,1.93455361347745,66529.9815028,66531.9270859,0,2.39205920000677,3
80,1,1,6,13,1.9250339691073,66534.3192606,66536.2549611,0,2.97182020000764,2
81,1,2,5,5,1.10225876410974,66539.2268977,66540.3395706,0,2.39944439999817,4
82,1,1,2,3,1.66838257330926,66542.7391587,66544.4183699,0,1.23706159999711,2
83,1,1,2,13,1.23422168424629,66545.6555259,66546.8987407,0,1.22306119999848,1
84,1,2,7,22,1.98342569485262,66548.1219347,66550.1166383,0,1.27728420001222,8
85,1,2,3,10,1.32848506173982,66551.394067,66552.7330472,0,1.9726881999959,3
86,1,2,5,15,1.53609059500952,66554.7058865,66556.2531954,0,1.18998919999285,2
87,1,1,3,17,1.51944625571365,66557.4433288,66558.972543,0,0.841113300004508,2
88,1,2,2,20,1.05611109897575,66559.813791,66560.88122,0,1.21865460000117,1
89,1,1,7,4,1.72834579760454,66562.0999787,66563.8392776,0,2.15765490000194,8
90,1,1,1,14,1.40741251119968,66565.9970921,66567.4144723,0,1.01501269999426,1
91,1,2,2,11,1.6666451649417,66568.4296134,66570.107033,0,0.928117800009204,1
92,1,1,3,18,1.90264359579797,66571.0353074,66572.9486654,0,1.2379621,3
93,1,2,8,10,1.00339173734708,66574.1867673,66575.2018828,0,1.26236959999369,8
94,1,2,1,13,1.08875226225331,66576.4643833,66577.5637353,0,1.69090449999203,2
95,1,2,3,22,1.39568039831905,66579.2547998,66580.6612731,0,2.02523489999294,2
96,1,1,6,16,1.61014947508336,66582.6866511,66584.3064547,0,2.47195920000377,5
97,1,1,3,9,1.65798049923897,66586.7785055,66588.446946,0,2.76941170000646,2
98,1,1,9,5,1.52351177085369,66591.2165087,66592.7513568,0,1.29640880000079,8
99,1,2,8,22,1.50762906132836,66594.0479878,66595.5659722,0,1.93956369999796,2
100,1,1,7,17,1.90035442991561,66597.5056755,66599.4170697,0,3.25051380001241,8
101,1,1,7,22,1.20382198853015,66602.6677101,66603.8817689,0,2.37764269999752,6
102,1,1,3,3,1.11206781253335,66606.2595715,66607.3845782,0,3.09822699999495,2
103,1,2,7,15,1.55347057268045,66610.4829268,66612.0470519,0,2.28717640000104,8
104,1,2,6,4,1.37985021512016,66614.3343618,66615.7236523,0,2.87785969999095,3
105,1,1,3,1,1.64216007466227,66618.6016329,66620.2537574,0,1.84959990000061,2
106,1,2,4,4,1.49185529202313,66622.1034868,66623.6057528,0,2.41981240001041,5
107,1,1,4,15,1.56364594712959,66626.0256637,66627.5990249,0,2.88498339999933,2
108,1,1,1,13,1.13099742851878,66630.4841668,66631.6255593,0,2.3043403000047,1
109,1,2,3,1,1.87580769582428,66633.9300087,66635.8164555,0,1.15043320000404,1
110,1,2,4,19,1.93852976328006,66636.9670741,66638.9174614,0,3.32716250000522,4
111,1,2,4,10,1.15468394278112,66642.2447585,66643.4100037,0,2.54683829999703,5
112,1,2,6,1,1.95992977081671,66645.9569728,66647.9260708,0,1.33301160001429,5
113,1,2,1,18,1.5303339454647,66649.2591927,66650.8010557,0,3.79069590001018,5
114,1,2,5,19,1.08719927701101,66654.5919069,66655.6896425,0,1.80457490000117,5
115,1,2,1,7,1.72893915119695,66657.4943467,66659.2342015,0,1.1156600999966,1
116,1,1,3,19,1.50099944005893,66660.3499513,66661.8603552,0,2.28199909999967,2
117,1,2,2,15,1.80707224674198,66664.1424958,66665.960741,0,2.00345219999144,2
118,1,1,1,7,1.5235896719821,66667.9644162,66669.4985717,0,1.10713600000599,2
119,1,2,3,20,1.75616156375851,66670.6058125,66672.3721274,0,2.37586359999841,1
120,1,2,6,15,1.05706596871907,66674.7481609,66675.8142221,0,3.29120669999975,8
121,3,1,7,11,1.94395923795919,66679.1055384,66681.0596808,0,NaN,None
122,1,2,3,16,1.36915549761077,66685.0603083,66686.4395031,0,1.50556419999339,4
123,1,1,1,18,1.41194639307982,66687.9452163,66689.3682465,0,1.46342240000376,2
124,1,1,2,16,1.31739154696116,66690.8317874,66692.1603792,0,2.13340200000675,2
125,1,2,3,7,1.99971593579626,66694.2939296,66696.3031143,0,3.17858320000232,3
126,1,1,1,3,1.55424325512648,66699.4818478,66701.046334,0,1.4779894999956,4
127,1,1,8,20,1.73452727191701,66702.5244393,66704.2687841,0,1.53141169999435,7
128,1,1,7,3,1.07704753220185,66705.8003044,66706.8882578,0,1.55840290000197,8
129,1,2,4,21,1.2891094773927,66708.4468419,66709.747095,0,1.78743860000395,3
130,1,1,6,10,1.70831490938479,66711.5347027,66713.2546419,0,2.48152980000305,3
131,1,2,3,17,1.01101699669187,66715.7362908,66716.7567669,0,3.76366650000273,2
132,1,1,9,3,1.66785775634271,66720.5206685,66722.1993045,0,1.69219869999506,8
133,1,1,2,11,1.97767195267299,66851.7398145,66853.732173,0,1.29576090000046,2
134,1,2,2,1,1.44861537526743,66855.0298414,66856.4883951,0,1.00071659999958,2
135,1,2,5,14,1.62278178027621,66857.4892549,66859.1231377,0,1.81278740000562,4
136,1,2,4,9,1.45838232716168,66860.9367225,66862.408276,0,2.29425079999783,2
137,1,1,3,7,1.15143882019568,66864.7026833,66865.8646443,0,2.67495309999504,4
138,1,1,1,2,1.05713118718414,66868.5397898,66869.6067805,0,1.7647949999955,2
139,1,1,4,1,1.61144440749785,66871.3716797,66872.9928629,0,2.18545189998986,4
140,1,1,1,12,1.04056808875849,66875.1784452,66876.228819,0,2.08123260000139,2
141,1,1,9,22,1.53629233426019,66878.3101514,66879.8569827,0,1.83944409999822,7
142,1,2,9,2,1.46361498779822,66881.6965729,66883.1696305,0,2.3991684000066,8
143,1,2,5,12,1.46152103902929,66885.5689192,66887.0410614,0,2.73481120000361,4
144,1,1,7,7,1.87217384727893,66889.7760175,66891.6584629,0,1.87939650000772,7
145,1,1,5,16,1.90197721549023,66893.5379966,66895.4493772,0,2.2215048000071,5
146,1,1,2,7,1.30356280703973,66897.6710238,66898.9855013,0,1.72213539999211,2
147,1,1,1,6,1.7473734889827,66900.7077617,66902.4665197,0,1.35645170000498,3
148,1,2,2,18,1.31557795190341,66903.8230786,66905.1488887,0,1.21532940000179,3
149,1,2,9,5,1.22533056455453,66906.3643576,66907.6015016,0,1.89909500000067,8
150,1,2,3,13,1.72088953935574,66909.5007655,66911.2324173,0,2.33518580000964,4
151,1,2,5,21,1.91658190169655,66913.5677476,66915.4947366,0,2.83022899999924,5
152,1,1,4,18,1.04486456992256,66918.3250726,66919.3806619,0,1.49535979999928,2
153,1,2,8,6,1.12569138954654,66920.8761087,66922.0124127,0,3.1159314999968,8
154,1,1,4,4,1.87747236837371,66925.128511,66927.017074,0,3.158540000004,4
155,1,1,5,13,1.92318335312991,66930.1757723,66932.1102081,0,2.67761590000009,5
156,1,1,8,7,1.4593136485644,66934.7879397,66936.2573127,0,2.35186069998599,4
157,1,2,9,15,1.69834777597687,66938.6092446,66940.3180553,0,1.19288440000673,1
158,1,1,9,2,1.08952386616838,66941.5110705,66942.6111852,0,1.50124389999837,2
159,1,2,4,7,1.47416365024775,66944.1125591,66945.5968881,0,1.59172039999976,4
160,1,1,7,12,1.86827873409895,66947.1887181,66949.0681192,0,3.17316079999728,6
161,1,2,5,17,1.35478767517344,66952.2413818,66953.6144931,0,1.34808739999426,5
162,1,2,5,9,1.409069518007,66954.962682,66956.3826665,0,1.77159430000756,3
163,1,2,3,14,1.17184089799924,66958.1543626,66959.3369591,0,2.45885880000424,2
164,1,1,4,21,1.12364775193311,66961.7959981,66962.9305742,0,2.64193549999618,4
165,3,2,2,13,1.11714669588669,66965.57275,66966.6989404,0,NaN,None
166,1,1,5,11,1.14684977729325,66970.6991493,66971.856677,0,1.44979030000104,5
167,1,1,1,17,1.78034893208184,66973.3065837,66975.0963915,0,1.37188409999362,3
168,1,1,8,11,1.92785294509062,66976.4684024,66978.4077158,0,3.30870769999456,7
169,1,2,8,2,1.85414912207713,66981.7165855,66983.5825669,0,2.4103568999999,8
170,1,1,9,19,1.99521728203561,66985.9930568,66987.9986904,0,3.51208349999797,8
171,1,1,7,6,1.7234977573563,66991.5108994,66993.2458193,0,2.38238309998997,7
172,1,2,8,3,1.55717130754874,66995.6283217,66997.1959585,0,2.71469480000087,8
173,1,1,6,20,1.4016139985814,66999.9107694,67001.3228422,0,1.9196074000065,6
174,1,2,6,12,1.18940155295232,67003.2425911,67004.4442975,0,2.34530939999968,6
175,1,1,4,9,1.32461811075703,67006.7896872,67008.1242239,0,2.3329539999977,3
176,1,1,2,19,1.91487314762908,67010.4573033,67012.3835351,0,2.83619269999326,4
177,1,2,4,17,1.18770919200275,67015.2198564,67016.4184759,0,1.00792389998969,4
178,1,1,6,17,1.04409207107324,67017.4265034,67018.4812067,0,1.40138599999773,6
179,1,2,5,13,1.71749653088021,67019.8826977,67021.6110332,0,0.988087200006703,5
180,1,2,7,2,1.78909127464327,67022.5992177,67024.3980303,0,1.97342039999785,7
181,1,2,2,9,1.87580857713942,67026.371571,67028.2579868,0,1.70052450000367,2
182,1,2,1,4,1.84195225920057,67029.9586573,67031.811217,0,1.26387570000952,2
183,1,2,9,8,1.07687230891522,67033.0752327,67034.1626952,0,2.10988810000708,7
184,1,2,5,22,1.88117415452695,67036.2729069,67038.1649053,0,1.64441170000646,7
185,1,2,9,20,1.12308805973423,67039.8094334,67040.9423934,0,3.74646630001371,7
186,1,2,1,12,1.4747121373446,67044.6890682,67046.173845,0,1.24963669999852,2
187,1,1,2,5,1.80792936375509,67047.4237792,67049.240929,0,1.18458319999627,1
188,1,2,6,22,1.93040314816817,67050.4256599,67052.3679189,0,3.31046030001016,5
189,1,1,5,8,1.00394822200156,67055.6784841,67056.6920762,0,2.33827140000358,4
190,1,1,8,8,1.83457598460761,67059.0304939,67060.8759794,0,1.19593119999627,8
191,1,1,6,19,1.95046320853859,67062.0720194,67064.032729,0,3.11188409999886,4
192,1,1,6,8,1.33869825968443,67067.1447406,67068.4934562,0,1.46303820000321,6
193,1,2,7,6,1.86224606240424,67069.9566818,67071.8299496,0,2.16366390000621,7
194,1,2,2,2,1.11290802083452,67073.9937514,67075.1159495,0,1.43957889999729,2
195,1,1,2,14,1.55623110951956,67076.5556631,67078.122313,0,1.11960020000697,1
196,1,2,5,7,1.34549021272816,67079.2420425,67080.5979546,0,1.62067999999272,4
197,1,1,6,18,1.01546481562609,67082.2187314,67083.2452452,0,1.13464720000047,3
198,1,1,1,10,1.92354581989099,67084.3800154,67086.3136758,0,1.36812800000189,1
199,1,1,9,16,1.26075480653823,67087.6819381,67088.9518742,0,3.18770030001178,9
200,1,2,4,12,1.64178792005095,67092.1397516,67093.7917985,0,1.20894460000272,3
201,1,1,8,15,1.04171315953705,67095.0008848,67096.0526127,0,1.59493500000099,5
202,1,2,1,6,1.96153801671723,67097.6477076,67099.6198374,0,1.71974460000638,2
203,1,1,2,6,1.98123688182881,67101.3396976,67103.3311587,0,1.41137579998758,2
204,1,1,6,3,1.16528830420391,67104.742634,67105.9194086,0,1.86480529999244,4
205,1,1,7,18,1.63956255170611,67107.7846218,67109.4338976,0,2.84704920000513,6
206,1,2,2,10,1.81553242471789,67112.2810811,67114.1067311,0,2.53740500001004,2
207,1,1,6,22,1.83245022853255,67116.6443881,67118.4879177,0,1.68948000000091,6
208,1,2,1,15,1.49621253643295,67120.1775778,67121.685232,0,1.55669800000032,1
209,1,2,2,16,1.37812867439423,67123.2420336,67124.6311783,0,1.46741199999815,2
210,1,2,2,22,1.66676991941697,67126.0987735,67127.7762858,0,2.30924909999885,1
211,1,2,5,16,1.61365927574705,67130.0856131,67131.710069,0,2.3933481000131,5
212,1,1,5,12,1.51783265182117,67134.1035338,67135.630993,0,3.76030090000131,6
213,1,2,5,8,1.8263509600711,67139.3914257,67141.2274499,0,2.90138460000162,6
214,1,2,2,5,1.80062812833049,67144.1289638,67145.9397759,0,1.66632089999621,2
215,1,2,7,3,1.81504719069869,67147.606268,67149.4333718,0,3.64605130000564,5
216,1,2,3,12,1.1452822593564,67153.0795224,67154.2362384,0,2.84584300000279,4
217,1,1,4,7,1.04286582279459,67157.0822104,67158.1359869,0,2.49769709999964,5
218,1,1,9,9,1.59151475960997,67160.6338181,67162.2363275,0,1.91441520000808,7
219,1,1,7,1,1.23309744348056,67164.1508689,67165.3948959,0,2.87798459999613,5
220,3,1,6,21,1.76160294167927,67168.2730734,67170.0460307,0,NaN,None
221,1,2,9,10,1.09309591543199,67174.0460669,67175.1490303,0,1.58338159999403,8
222,1,1,5,3,1.54831678902872,67176.7325135,67178.2946095,0,1.96505440000328,3
223,1,2,9,16,1.68103506930003,67180.2598061,67181.9524217,0,1.46874270000262,9
224,1,2,8,4,1.62197271652181,67183.4212818,67185.052331,0,1.39073699999426,8
225,1,1,8,18,1.83420556875157,67186.4432082,67188.2886773,0,3.63747229998989,6
226,1,2,5,10,1.98742840947,67191.9262488,67193.9240106,0,1.4389855999907,4
227,1,1,9,17,1.51396117720684,67195.3630973,67196.8881088,0,1.3618601999915,8
228,1,1,3,5,1.96223278331393,67198.2501036,67200.2219775,0,1.32947330000752,3
229,1,2,9,17,1.12907961518181,67201.5515279,67202.6916598,0,1.2114164000086,8
230,1,1,7,20,1.72254035374786,67203.9032134,67205.6353773,0,1.48993870000413,7
231,1,2,1,16,1.16371873460129,67207.1254732,67208.2996299,0,1.64211590000195,3
232,1,1,4,10,1.62122089624969,67209.9418907,67211.5734316,0,2.15584409999428,5
233,1,2,4,20,1.91482048614058,67213.7293791,67215.6555073,0,2.29127889999654,4
234,1,1,2,20,1.81886783145178,67217.9469475,67219.7764713,0,1.04810359999829,1
235,1,1,5,6,1.67296341474987,67220.8246968,67222.5083152,0,1.95745820000593,4
236,1,1,3,12,1.03885753840266,67224.4658725,67225.5158824,0,3.03244650000124,2
237,1,1,9,11,1.43499078322922,67228.5485233,67229.993629,0,2.17179149998992,8
238,1,2,7,19,1.14108898959014,67232.1655679,67233.3175398,0,1.82477639999706,6
239,1,2,7,21,1.87370688625013,67235.1424433,67237.0285691,0,1.48078689999238,7
240,1,1,5,20,1.58527789855119,67238.5094929,67240.1067127,0,2.62470689999464,4
241,1,1,2,12,1.21559774278313,67242.7315841,67243.9585807,0,2.98035810000147,2
242,1,1,9,8,1.32439486104947,67246.9390713,67248.274417,0,1.37087780000002,8
243,1,1,6,2,1.70859129474545,67249.6460489,67251.3643893,0,3.90915279999899,5
244,1,2,3,15,1.37156671267419,67255.2736647,67256.6558779,0,1.30943619999744,9
245,1,1,4,20,1.2459334414219,67257.9654325,67259.2219417,0,2.14561059999687,5
246,1,2,8,20,1.71158098770275,67261.3677072,67263.0901818,0,2.71008299999812,8
247,1,1,7,21,1.64688805764975,67265.80038,67267.457545,0,1.94484640000155,7
248,1,1,5,21,1.52712634710491,67269.4025261,67270.9398487,0,1.44406029999664,4
249,1,1,9,18,1.68719189021981,67272.3840258,67274.0818618,0,1.92448639999202,8
250,1,2,1,10,1.73584191699056,67276.0064717,67277.7520815,0,1.45619019999867,1
251,1,2,1,21,1.53081279146916,67279.2084017,67280.7498606,0,1.06040820000635,1
252,1,2,7,4,1.21002995913123,67281.8103947,67283.0322153,0,1.4293800000014,9
253,1,1,4,22,1.81694818405164,67284.4617284,67286.2893715,0,1.72446040000068,1
254,1,2,8,19,1.67043066035114,67288.0139711,67289.6941064,0,3.36295029999746,6
255,1,1,4,13,1.41810937645318,67293.0572071,67294.4864963,0,3.05803119999473,4
256,1,2,8,18,1.59452413766563,67297.5446696,67299.1492587,0,1.94746250000026,3
257,1,1,8,17,1.66312303657655,67301.0968571,67302.7698517,0,1.45374750001065,7
258,1,1,3,14,1.83106328213421,67304.2237203,67306.0658121,0,2.21023739999509,3
259,1,2,5,6,1.13902429930365,67308.2761621,67309.4265562,0,3.06199930000002,5
260,1,2,4,1,1.76973446430314,67312.4886884,67314.2690981,0,1.4311325000017,3
261,1,1,1,8,1.93579816028538,67315.7003202,67317.6486936,0,0.958859799997299,2
262,1,1,4,12,1.31341821494997,67318.6076706,67319.9313435,0,1.77271900000051,5
263,1,2,1,14,1.31943033611073,67321.7041453,67323.0347909,0,0.82680180000898,1
264,1,1,1,9,1.99384720481848,67323.8616888,67325.8654138,0,1.17727220000234,1
265,1,2,2,4,1.82126634471502,67455.1803308,67457.0139178,0,1.74065310000151,2
266,1,1,5,7,1.12004976914032,67458.7546913,67459.8857917,0,2.10176370000408,4
267,1,2,4,18,1.09634326748997,67461.9876842,67463.0950945,0,1.84939110001142,3
268,1,2,7,9,1.72032534798672,67464.9445803,67466.6752413,0,1.70998939999845,9
269,1,2,8,15,1.83042056873515,67468.3853703,67470.2255061,0,1.36133129999507,9
270,1,2,4,13,1.23945776056576,67471.5869558,67472.8369219,0,1.32625420000113,4
271,1,2,4,15,1.57667657939862,67474.1632931,67475.7503358,0,1.43475480000779,7
272,1,2,8,12,1.23472226919879,67477.1852239,67478.4310349,0,3.94169439999678,4
273,1,2,1,17,1.27405267425448,67482.3728561,67483.6571066,0,3.30363439999928,2
274,3,1,4,11,1.38195509324871,67486.9608734,67488.3531222,0,NaN,None
275,1,1,3,11,1.64287212232997,67492.3531578,67494.0070741,0,1.59776680001232,2
276,1,2,8,21,1.32640776924418,67495.6049518,67496.9420767,0,3.6799589000002,7
277,1,2,7,5,1.89986785816375,67500.6221664,67502.5326699,0,1.12596309999935,8
278,1,2,9,9,1.28151628600583,67503.6587505,67504.9520903,0,1.05407070000365,9
279,1,1,7,5,1.4506261283984,67506.0062743,67507.4678858,0,1.74384680000367,7
280,1,1,3,22,1.23856710416847,67509.2118605,67510.4606873,0,2.07265699999698,4
281,3,2,3,11,1.48653352757342,67512.5334912,67514.0309555,0,NaN,None
282,1,2,3,2,1.76418581439683,67518.0309854,67519.8055159,0,1.78271069999028,3
283,1,1,7,9,1.28720576771767,67521.5883607,67522.8872468,0,1.48752939999395,8
284,1,1,3,16,1.4892273406704,67524.3748611,67525.8750262,0,1.60167689999798,2
285,1,2,1,11,1.84472750563197,67527.4768103,67529.332156,0,1.43704199999047,1
286,1,1,4,14,1.290577479045,67530.7692604,67532.0696171,0,2.61647670000093,2
287,1,1,5,22,1.62854910456306,67534.6862249,67536.3248472,0,2.23848400000134,4
288,1,1,8,10,1.06717502083983,67538.5634662,67539.6423725,0,3.74910960000125,6
289,1,1,3,15,1.30334300474584,67543.3916701,67544.7061275,0,1.51223059999757,2
290,1,1,7,13,1.06322474389188,67546.2184607,67547.292395,0,3.73437780000677,4
291,1,1,1,22,1.56492540879218,67551.026909,67552.6024533,0,2.61110029999691,2
292,1,2,8,13,1.15702463690547,67555.2136973,67556.3826301,0,2.39300020001247,7
293,1,1,2,21,1.95343373880191,67558.7757589,67560.7400842,0,3.08825579998665,1
294,1,2,8,11,1.27630763495724,67563.8284375,67565.1148967,0,2.83089089998975,7
295,1,1,4,8,1.72393586186129,67567.9459555,67569.6804848,0,1.6022893999907,5
296,1,1,7,8,1.37692069304882,67571.28291,67572.671145,0,2.26878499999293,8
297,1,2,5,3,1.28367039271938,67574.9400586,67576.2339923,0,2.88825240000733,5
298,1,1,6,11,1.14134437953405,67579.1223894,67580.2754204,0,1.73943430000509,4
299,1,1,6,7,1.77831043223153,67582.014991,67583.8037712,0,2.17770090000704,6
300,1,2,7,1,1.8337761161918,67585.981605,67587.8260702,0,2.69302980000793,6
301,1,2,9,3,1.1159543484417,67590.5191745,67591.6444576,0,1.22586399999273,8
302,1,2,1,1,1.87605421183551,67592.8704615,67594.7574585,0,1.64081420000002,2
303,3,1,5,19,1.75807757723346,67596.3983887,67598.1679898,0,NaN,None
304,1,2,1,3,1.45548267641532,67602.1680282,67603.6346245,0,2.38113449999946,2
305,1,2,3,3,1.49571974286695,67606.0158694,67607.5211575,0,1.74982719999389,3
306,1,1,7,19,1.18363146014694,67609.2711052,67610.4658869,0,2.30749140000262,7
307,1,1,8,13,1.07009586514568,67612.7734977,67613.8549699,0,2.01008870000078,8
308,1,1,5,14,1.9998458123346,67615.8652221,67617.8752192,0,1.72691060000216,4
309,3,1,6,4,1.57760747943054,67619.6023273,67621.191715,0,NaN,None
310,1,2,9,11,1.19801491616196,67625.1917458,67626.4012423,0,2.43648930000199,7
311,1,2,6,5,1.04274785316517,67628.8378666,67629.8916553,0,1.30231279999134,4
312,1,2,2,21,1.36117321719295,67631.1940993,67632.5655052,0,1.27557340000931,2
313,1,1,7,15,1.72237458617774,67633.8411868,67635.5742757,0,1.68057900000713,8
314,1,1,4,19,1.83804084279945,67637.2550009,67639.1032912,0,3.86294900000212,5
315,1,2,1,22,1.06890161212725,67642.9663419,67644.0470601,0,3.33212730000378,2
316,1,2,9,1,1.54113319702319,67647.3793294,67648.9313855,0,1.90497280001,7
317,1,2,4,6,1.61963538288613,67650.836543,67652.4676079,0,1.23511860000144,4
318,1,2,7,20,1.72718752254346,67653.7028378,67655.4419688,0,3.41384629999811,7
319,1,1,5,17,1.30358051460036,67658.8559058,67660.1702642,0,1.777797799994,5
320,1,2,9,18,1.60560852984975,67661.9481912,67663.5655043,0,1.9096406000026,9
321,1,1,8,21,1.73762502448544,67665.4752876,67667.2237048,0,1.40836929999932,9
322,1,1,6,14,1.94272646068764,67668.6321868,67670.5868157,0,2.44787870001164,6
323,1,2,4,8,1.52654720402925,67673.0348511,67674.5725331,0,1.66418229999545,5
324,1,2,9,4,1.26220132458019,67676.2368411,67677.5095803,0,1.65173850000429,9
325,3,2,8,14,1.7415998024649,67679.1614435,67680.9143628,0,NaN,None
326,1,1,1,16,1.23001747546894,67684.9143954,67686.1562292,0,1.55254049999348,2
327,1,2,9,6,1.35621854345825,67687.7089201,67689.0747209,0,1.5058546000073,8
328,1,1,2,9,1.34616548696284,67690.5807004,67691.9377641,0,2.52511309999682,2
329,1,2,9,7,1.22081827520095,67694.462985,67695.6944516,0,1.09014540001226,9
330,1,1,5,4,1.04647815447046,67696.7847226,67697.8417231,0,3.44032059999881,4
331,1,1,1,21,1.51215020227437,67701.282159,67702.8055201,0,2.66424450000341,3
332,1,2,5,20,1.76471483827112,67705.4698745,67707.2456999,0,1.78128850000212,5
333,1,1,4,6,1.34796282945481,67709.0271047,67710.3862676,0,0.977058000004035,5
334,1,2,7,13,1.45741748226674,67711.3634501,67712.8326022,0,1.33362000000488,8
335,1,2,9,12,1.19735893048393,67714.1663475,67715.3750478,0,1.19675849999476,9
336,1,1,9,10,1.20814416597442,67716.5719065,67717.7912149,0,1.08179359999485,8
337,3,1,6,5,1.42259279592313,67718.873157,67720.3064291,0,NaN,None
338,1,2,2,12,1.21523327771481,67724.3064597,67725.5325428,0,1.65752199999406,8
339,1,2,2,19,1.133177197575,67727.1901718,67728.3346344,0,1.21965450000425,2
340,1,2,9,21,1.03785539955245,67729.5544645,67730.6025997,0,1.47850589999871,8
341,1,2,9,14,1.38552127788791,67732.081216,67733.4780774,0,2.37510520000069,8
342,1,2,6,19,1.43822170046022,67735.853314,67737.3006069,0,1.8201190999971,5
343,1,2,3,19,1.37331428111369,67739.1207966,67740.5039465,0,1.553004100002,4
344,1,2,4,2,1.89974962860794,67742.057096,67743.9678539,0,1.34103609999875,5
345,1,1,6,1,1.74781073222704,67745.3090206,67747.0656021,0,1.47011939999356,5
346,1,2,2,3,1.19179900504403,67748.5358745,67749.7379746,0,1.69925930000318,2
347,1,2,7,12,1.78106538232953,67751.4373514,67753.2286405,0,2.39620409999043,8
348,1,1,3,6,1.91111121764027,67755.6249882,67757.5466914,0,1.85510339999746,5
349,1,2,9,19,1.28920505549175,67759.4019914,67760.7022678,0,2.25675879999471,8
350,1,1,8,14,1.65182218211541,67762.959143,67764.6216739,0,2.15486960000999,8
351,1,1,5,10,1.02551037678062,67766.7766962,67767.812857,0,3.80285400000867,4
352,1,1,3,8,1.93506847272696,67771.6158311,67773.5619498,0,1.85982169999625,2
353,1,2,3,4,1.15759149976678,67775.4218803,67776.59003,0,2.83924569998635,5
354,1,1,2,22,1.10811422126889,67779.4294004,67780.5482966,0,2.10825509999995,2
355,1,1,3,2,1.73322891554625,67782.6566893,67784.4023141,0,1.70615049998742,4
356,1,1,5,15,1.38498340824947,67786.1086055,67787.5045033,0,1.84605729999021,4
357,1,1,8,9,1.60519614745193,67789.3506868,67790.9653984,0,1.31699690000096,8
358,1,1,7,14,1.18706306874576,67792.2825312,67793.4802412,0,2.05880020000041,8
359,1,1,3,10,1.53082738200616,67795.5391367,67797.080025,0,2.24665469999309,2
360,1,2,7,7,1.63529098670868,67799.3267959,67800.9733295,0,1.88041699999303,6
361,1,2,6,9,1.36566695891695,67802.8538692,67804.2305827,0,3.07060479999927,8
362,1,2,7,17,1.39695262664828,67807.3013247,67808.7087933,0,2.59029219999502,8
363,1,2,8,1,1.62333338529656,67811.299285,67812.9356041,0,1.29609689999779,8
364,1,2,8,8,1.220222628735,67814.2318204,67815.4628905,0,1.15945669999928,8
365,1,2,2,17,1.83851516056407,67816.6224704,67818.472053,0,1.42707579999114,2
366,1,1,5,18,1.73414264771028,67819.8992306,67821.6435945,0,0.982338200003142,3
367,1,1,8,22,1.7182031297865,67822.6260635,67824.3560893,0,1.61692400000175,8
368,1,2,4,14,1.41390313489804,67825.9731353,67827.396202,0,1.45431619998999,4
369,1,1,8,6,1.78898995238158,67828.8506508,67830.6495623,0,3.66340950000449,8
370,1,2,7,16,1.11270548946377,67834.313087,67835.4361908,0,1.8882930999971,7
371,1,2,3,21,1.37772550981218,67837.3245991,67838.7139399,0,1.83769729999767,4
372,1,2,5,2,1.1062904618198,67840.5517345,67841.6699365,0,1.46825530000206,5
373,1,1,6,9,1.39088329764265,67843.1383424,67844.5392206,0,1.94061530000181,6
374,1,2,1,19,1.73704827958922,67846.4799253,67848.2264758,0,2.04076319999876,3
375,1,1,6,12,1.83649963455697,67850.2673576,67852.1142985,0,1.85034869999799,7
376,1,1,9,7,1.93261366664867,67853.9647591,67855.9085518,0,2.46843329998956,7
377,1,1,8,12,1.43835884035754,67858.3771174,67859.8262999,0,1.6227429999999,8
378,1,1,4,3,1.47034609936819,67861.4491921,67862.9302277,0,1.63567070000863,4
379,1,2,3,5,1.15931040416703,67864.5660308,67865.7363438,0,2.29641409999749,5
380,1,2,2,7,1.71688818642891,67868.0328992,67869.7602234,0,1.42027710001275,3
381,1,1,9,21,1.43177951267851,67871.1805648,67872.6237179,0,3.33372640000016,7
382,1,1,6,6,1.63139878486932,67875.9575636,67877.5986708,0,1.49048839999887,4
383,1,1,5,9,1.882914960215,67879.0892541,67880.9830299,0,1.81841829999757,4
384,1,2,6,16,1.13618294664262,67882.8015756,67883.9477385,0,1.88544009999896,5
385,1,1,8,19,1.83214108202405,67885.8333105,67887.675419,0,2.21990689999075,6
386,1,2,4,16,1.94366471907546,67889.8954395,67891.8509132,0,2.79748819999804,4
387,1,2,8,9,1.13216371747584,67894.6485281,67895.7914494,0,1.47448770000483,8
388,1,2,8,7,1.09384008459399,67897.266053,67898.3708038,0,1.29551060000085,8
389,1,1,1,11,1.67423250133187,67899.6663782,67901.3507846,0,2.69826619999367,2
390,1,2,9,13,1.87799489607656,67904.0491943,67905.9373967,0,1.56874149999931,9
391,1,2,1,20,1.47317724499607,67907.5062466,67908.9899066,0,1.28363209999225,1
392,1,2,4,3,1.53478988323114,67910.2736611,67911.8183854,0,1.53612110001268,3
393,1,1,5,1,1.00948229735157,67913.3546383,67914.375627,0,3.65653100000054,3
394,1,2,6,3,1.04231341010191,67918.0322852,67919.0852252,0,1.64864329999546,4
395,3,1,7,2,1.16764757253352,67920.7339831,67921.9126213,0,NaN,None
396,1,1,2,1,1.36434337096818,67925.9126589,67927.2882491,0,1.770689699988,2
