ID,State,Position ID,Morph Step,Face Person,ITI,Trial_Onset,Stim_Onset,Stim_Offset,RT,Answer
1,1,1,6,4,1.47298628105051,80213.0482043,80214.5320069,0,2.19118359999266,4
2,1,2,7,4,1.29903273190608,80216.7259491,80218.0369652,0,3.07048210001085,6
3,1,1,9,15,1.85475518017394,80221.1092551,80222.9747166,0,2.14983409999695,8
4,1,2,6,22,1.76710805023921,80225.1249988,80226.9030019,0,1.52393909999228,5
5,1,2,3,16,1.74768055754197,80228.4289531,80230.1872582,0,2.33225499998662,2
6,1,1,8,11,1.72467284775479,80232.5197161,80234.2542267,0,2.07415420000325,7
7,1,2,4,1,1.59339887456844,80236.3285115,80237.931218,0,1.13312690000748,5
8,1,1,1,20,1.37421953215119,80239.0644572,80240.4488075,0,2.74383220000891,4
9,1,1,7,21,1.35757074823313,80243.1927921,80244.5611797,0,1.80863089999184,6
10,1,1,9,21,1.29268479101963,80246.36994,80247.6728637,0,1.21380409999983,6
11,1,2,4,6,1.26827180360191,80248.8868006,80250.1681618,0,1.2866337000014,5
12,1,1,5,21,1.28504416709866,80251.455151,80252.7513151,0,1.08421109999472,5
13,1,2,7,21,1.42308006515341,80253.835674,80255.2708929,0,1.27154350001365,6
14,1,1,9,3,1.91219196555486,80256.5425395,80258.4661963,0,1.53395050000108,6
15,1,2,8,17,1.4982712430729,80260.0002474,80261.5080307,0,1.21924350000336,7
16,1,1,9,22,1.53235412308217,80262.7274458,80264.2697064,0,1.45491270000639,8
17,1,1,4,21,1.14295100836002,80265.7247268,80266.8776429,0,0.983639800004312,5
18,1,2,7,13,1.67040299832775,80267.8613935,80269.5420621,0,1.33126630001061,6
19,1,2,6,15,1.69578093025834,80270.8734077,80272.5792041,0,1.70328169999993,6
20,1,2,1,1,1.6360765131002,80274.2826168,80275.9295035,0,1.47896140000375,4
21,1,2,5,22,1.70746219001969,80277.4086904,80279.1264537,0,1.30961200001184,5
22,1,1,3,20,1.9980452456617,80280.4361913,80282.4449023,0,1.27829329999804,4
23,1,1,3,10,1.38218989473527,80283.7233593,80285.1159584,0,1.49917799999821,3
24,1,1,9,10,1.44459894318902,80286.6152746,80288.0701738,0,1.89751019999676,7
25,1,1,2,15,1.9498095914044,80289.9678099,80291.9282581,0,1.85232360000373,3
26,1,2,3,3,1.32585541458527,80293.7807157,80295.1166722,0,1.29088580000098,4
27,1,1,1,21,1.35069607601951,80296.4076792,80297.7684502,0,1.15097969998897,4
28,1,2,2,2,1.96094351174233,80298.919555,80300.891102,0,2.2815408000024,4
29,1,2,4,9,1.30408041758765,80303.1727809,80304.4880164,0,2.05173469999863,3
30,1,1,3,9,1.32855596499104,80306.5398645,80307.8799222,0,1.24672390001069,3
31,1,2,8,20,1.75629124354459,80309.1267889,80310.8943303,0,1.33444320000126,6
32,1,2,4,2,1.00213919936403,80312.2289634,80313.2413572,0,1.72423690000142,3
33,1,1,7,18,1.06344254186388,80314.9657803,80316.0405637,0,1.46316320000915,6
34,1,1,4,20,1.47429342401716,80317.5042177,80318.9879851,0,1.2615181000001,5
35,1,2,3,22,1.5901504390012,80320.2497069,80321.8496906,0,1.9024316000141,4
36,1,2,8,6,1.51971443021307,80323.7522564,80325.2819152,0,1.83749689999968,7
37,1,2,9,15,1.43082949551982,80327.1195155,80328.5597497,0,1.48797669999476,8
38,1,2,8,5,1.84449466745179,80330.0483337,80331.9036772,0,1.87550300000294,7
39,1,2,7,7,1.68038557283628,80333.7793182,80335.469854,0,1.40147419999994,6
40,1,2,5,5,1.72522544817223,80336.871529,80338.6065951,0,1.72336469999573,5
41,1,2,9,3,1.19913854353787,80340.3300747,80341.539482,0,1.37611250000191,6
42,1,2,5,7,1.28024914788848,80342.9157218,80344.2062564,0,1.08589250000659,5
43,1,2,2,4,1.29881818291367,80345.2922766,80346.6015398,0,1.80908069999714,4
44,1,1,8,15,1.09446640085162,80348.410762,80349.5166519,0,1.50456239999039,7
45,1,2,9,17,1.12453307473151,80351.0213496,80352.1562708,0,1.42204770000535,7
46,1,2,8,18,1.63848752926167,80353.5784999,80355.2269991,0,1.11407169999438,6
47,1,1,4,6,1.63121588476391,80356.3411937,80357.9831106,0,1.39538229999016,4
48,1,1,9,1,1.76660707019678,80359.3786473,80361.1564371,0,1.30776599999808,6
49,1,1,1,12,1.53759381780896,80362.4643062,80364.0122811,0,1.42507709999336,3
50,1,2,1,2,1.45097847461379,80365.4374694,80366.8983966,0,1.02529000000504,3
51,1,1,3,3,1.14894687956598,80367.923815,80369.0840165,0,1.38143950000813,4
52,1,1,8,6,1.66204062527874,80370.4655968,80372.1380527,0,2.09576090000337,6
53,1,2,3,17,1.46499590777723,80374.2339431,80375.7093774,0,1.33140680000361,4
54,1,1,4,22,1.26414771086425,80377.0409145,80378.3163692,0,1.19139310000173,5
55,1,2,1,12,1.07387179658567,80379.5079308,80380.5925845,0,1.63716869999189,4
56,1,2,2,12,1.80537799039635,80382.229871,80384.0455995,0,0.875980900003924,3
57,1,2,5,16,1.84319028236601,80384.9217115,80386.7751279,0,1.33410640001239,5
58,1,1,8,19,1.91776074753218,80388.1093919,80390.0377343,0,1.27878009999404,7
59,1,2,6,18,1.35487892903749,80391.3166326,80392.6818638,0,1.22168740000052,5
60,1,2,3,13,1.94260734449697,80393.9037099,80395.856485,0,1.04915720000281,5
61,1,1,7,8,1.253196467139,80396.9057583,80398.1701624,0,1.47762320000038,6
62,1,1,1,16,1.74024402373707,80399.6479095,80401.3981563,0,2.0487976000004,4
63,1,1,2,19,1.13604973936695,80403.4470803,80404.5947399,0,1.62295469999663,4
64,1,1,6,2,1.12085673093085,80406.2179416,80407.3499522,0,1.20939619999263,5
65,1,2,9,6,1.71091512719683,80408.5594884,80410.2813393,0,1.63601729999937,6
66,1,1,4,5,1.70755432506916,80411.9174641,80413.6354619,0,1.06904649999342,5
67,1,2,3,8,1.64366312615832,80414.7046581,80416.3594755,0,1.51783670000441,4
68,1,2,8,10,1.24239272485157,80417.8774395,80419.1308043,0,1.19808639999246,6
69,1,2,6,9,1.50236745911515,80420.3290195,80421.8423699,0,1.6687923999998,4
70,1,2,2,22,1.50057124150457,80423.5112938,80425.0233071,0,1.2201025000104,3
71,1,2,5,19,1.04770958366925,80426.2435566,80427.3016499,0,1.34359519999998,5
72,1,1,5,22,1.35762634130184,80428.6453636,80430.0128353,0,0.934054199999082,5
73,1,2,8,4,1.93865954772347,80430.9470299,80432.8952302,0,1.23941550000745,6
74,1,2,1,3,1.80835640860385,80434.1347355,80435.9531114,0,1.41425990000425,3
75,1,1,2,21,1.07469302143257,80437.367489,80438.4521249,0,2.0287965000025,4
76,1,1,3,22,1.70979289180804,80440.4810713,80442.2013582,0,2.12669099999766,3
77,1,1,2,1,1.76095289261962,80444.3281838,80446.0986071,0,1.59748560001026,3
78,1,1,6,1,1.08585963681762,80447.696439,80448.7920264,0,1.1204551999981,5
79,1,2,3,21,1.21240383539378,80449.9126213,80451.1351571,0,1.35009439999703,3
80,1,2,8,1,1.46350997324027,80452.4853987,80453.9596123,0,0.976706600005855,5
81,1,2,1,10,1.90546289080179,80454.9364568,80456.8529206,0,1.96131140000944,4
82,1,1,1,19,1.39774024587035,80458.8143645,80460.2227512,0,1.30898850000813,4
83,1,2,6,19,1.18032051238024,80461.5319088,80462.7228635,0,0.755977900000289,5
84,1,2,8,13,1.27569788761249,80463.4789971,80464.7663358,0,1.76430720000644,7
85,1,2,9,5,1.72673987609674,80466.530783,80468.2681912,0,1.52489820000483,7
86,1,2,2,19,1.28506236156059,80469.793218,80471.088077,0,1.48697870000615,4
87,1,1,7,2,1.03685085586634,80472.5751693,80473.6222964,0,1.69975519999571,6
88,1,2,4,8,1.4913581424627,80475.3221613,80476.8252279,0,0.878933200001484,5
89,1,1,4,16,1.81729826327053,80477.7043315,80479.5332168,0,0.89292359999672,5
90,1,2,8,3,1.17096322325376,80480.4262722,80481.6083476,0,1.27964480000082,6
91,1,1,6,9,1.27442151908581,80482.8881126,80484.1737848,0,1.24123929999769,5
92,1,1,8,4,1.40131643579765,80485.4151901,80486.8273804,0,0.938971999989008,6
93,1,1,4,9,1.98328696580148,80487.7664389,80489.7598265,0,1.15959880000446,4
94,1,1,1,3,1.40144606430575,80490.9195797,80492.3319605,0,2.89056820000405,4
95,1,1,6,14,1.90579991348248,80495.2226371,80497.1377766,0,1.08248910000839,5
96,1,2,5,20,1.02433768882768,80498.220412,80499.2565357,0,0.970283999995445,5
97,1,2,2,20,1.15129710502248,80500.2269476,80501.3889242,0,1.58026590000372,3
98,1,2,9,21,1.03149026182546,80502.969669,80504.010948,0,1.44705410000461,6
99,1,1,3,5,1.23694097274592,80505.4582447,80506.7051572,0,1.25304509999114,5
100,1,2,4,18,1.14493478809802,80507.9583403,80509.1145806,0,1.23043379999581,5
101,1,1,4,18,1.09676880098288,80510.3451723,80511.4526839,0,0.828748999992968,5
102,1,2,7,2,1.97464147124832,80512.2815391,80514.2668732,0,1.27825210000447,5
103,1,1,3,17,1.91680083844766,80515.5452723,80517.4728546,0,0.60837139999785,5
104,1,1,9,14,1.49338867721079,80518.0813366,80519.585595,0,1.24285070000042,7
105,1,1,6,6,1.15527911210603,80520.8285686,80521.9930778,0,1.07755630000611,5
106,1,2,6,16,1.8389351247754,80523.0707938,80524.919933,0,0.667670900002122,5
107,1,1,1,2,1.33413087042626,80525.5877325,80526.933222,0,1.32191369999782,3
108,1,1,8,7,1.56092659809928,80528.2552639,80529.825995,0,1.31161359998805,7
109,1,1,7,14,1.93356622062366,80531.1377429,80533.0830981,0,1.13694959999702,6
110,1,1,8,17,1.63879196897114,80534.2201853,80535.8692341,0,1.26312420000613,6
111,1,1,6,7,1.51579376671215,80537.1324698,80538.6605751,0,1.18384099999093,5
112,1,2,9,7,1.72827866249632,80539.8444991,80541.5830491,0,1.54939530001138,6
113,1,1,3,19,1.86023884217484,80543.1325785,80545.003914,0,1.06082779999997,5
114,1,1,2,12,1.50918464078429,80546.0648823,80547.5842523,0,1.96427840000251,4
115,1,2,6,10,1.83348005849862,80549.5486708,80551.3930482,0,0.95713650000107,5
116,1,2,1,16,1.99509949971804,80552.3503176,80554.3568123,0,1.25086230000306,3
117,1,2,7,11,1.6291191631238,80555.6078165,80557.2475819,0,1.62774029999855,6
118,1,1,5,13,1.75291603047156,80558.8754534,80560.6386545,0,1.23906269999861,5
119,1,2,3,2,1.80829827419141,80561.8778775,80563.6966522,0,1.22843410000496,4
120,1,1,7,19,1.99823596518896,80564.9252008,80566.9344296,0,1.71886889998859,6
121,1,2,6,5,1.37139388353342,80568.6534065,80570.0347987,0,0.845332600001711,5
122,1,2,3,14,1.60778087840978,80570.880269,80572.5000246,0,1.55757550000271,4
123,1,2,5,17,1.3845373962947,80574.0577248,80575.4529828,0,2.28734870000335,5
124,1,2,2,11,1.93349431703034,80577.7404663,80579.6846366,0,1.58874930000457,4
125,1,1,6,5,1.26209318408357,80581.2735182,80582.5462683,0,1.73947540001245,5
126,1,2,6,6,1.20622085270664,80584.2858585,80585.5021317,0,1.20569869999599,5
127,1,2,2,7,1.58778794902298,80586.7079635,80588.3057168,0,1.62051580000843,4
128,1,1,3,4,1.05062418160084,80589.926318,80590.9870811,0,1.93598460000067,5
129,1,2,8,11,1.35840987962549,80592.9232029,80594.292648,0,1.15735029999632,6
130,1,1,6,12,1.46628362713064,80595.4501,80596.9263631,0,0.785758899990469,5
131,1,1,1,18,1.91755765249162,80597.7122451,80599.6403375,0,1.04452510000556,4
132,1,2,2,3,1.33673312906932,80600.6850135,80602.0321849,0,1.08978890000435,4
133,1,1,2,13,1.4941279025975,80725.3891682,80726.8965704,0,1.93067630000587,4
134,1,1,3,12,1.50717160527144,80728.8293799,80730.3502611,0,0.993994200005545,4
135,1,2,4,17,1.06192812784916,80731.3443645,80732.415834,0,1.02013689999876,5
136,1,1,3,18,1.81207709636967,80733.4361179,80735.2595458,0,1.2433175000042,4
137,1,1,1,7,1.742679382182,80736.5030285,80738.2559138,0,1.16426139998657,3
138,1,2,4,3,1.2488137588405,80739.4203834,80740.679387,0,1.10233270000026,5
139,1,2,5,12,1.00903217290656,80741.7818562,80742.8008624,0,1.24806779999926,5
140,1,1,4,17,1.32308001051828,80744.049079,80745.3841273,0,0.626245599996764,5
141,1,1,3,1,1.22290663390347,80746.0105261,80747.2444387,0,1.5272541000013,4
142,1,2,6,17,1.3568181346358,80748.7718104,80750.1391298,0,1.06470000000263,5
143,1,1,3,13,1.71455001851814,80751.2039729,80752.9308293,0,0.854441999996197,5
144,1,2,9,2,1.64153481332574,80753.7854236,80755.4377729,0,1.48460480000358,6
145,1,1,1,4,1.9173058616615,80756.9224893,80758.8502781,0,1.6598004999978,5
146,1,2,7,3,1.95279870464486,80760.5102239,80762.4732546,0,1.67446369999379,6
147,1,2,8,14,1.74256415878111,80764.1478592,80765.9000302,0,1.72012309999263,8
148,1,2,7,5,1.33023397673257,80767.6203039,80768.9609306,0,1.38116589999117,7
149,1,1,7,13,1.3944011573343,80770.3422622,80771.7466369,0,1.72250679999706,5
150,1,2,4,5,1.57011925664873,80773.4692789,80775.0504378,0,0.800118599989219,5
151,1,2,4,4,1.28901316847036,80775.8506478,80777.1494172,0,1.06318800000008,5
152,1,2,9,14,1.09960497866938,80778.2127266,80779.3232387,0,1.30591110000387,8
153,1,2,1,4,1.13427951406841,80780.6292635,80781.7751256,0,1.30572550000215,4
154,1,2,5,4,1.30827105650895,80783.080954,80784.3994856,0,1.09324189998733,5
155,1,2,7,19,1.72803624829515,80785.4929022,80787.2319288,0,1.33791099999507,6
156,1,2,7,1,1.87829092786425,80788.5699466,80790.4592615,0,1.67838409999968,6
157,1,2,8,8,1.51557608732794,80792.1377705,80793.6629548,0,1.04729399998905,6
158,1,2,9,9,1.91765410447139,80794.7104299,80796.6386453,0,1.25318109999353,7
159,1,2,5,1,1.80863661652869,80797.8919787,80799.7114199,0,0.832081399988965,5
160,1,2,8,9,1.65573839914769,80800.543581,80802.209322,0,0.936448000007658,7
161,1,2,2,16,1.85690565757753,80803.1459146,80805.012836,0,0.969852300011553,4
162,1,1,6,21,1.96572489172254,80805.9827988,80807.9597278,0,1.19544049999968,5
163,1,2,6,13,1.4852005218244,80809.1553178,80810.650483,0,0.581146500000614,5
164,1,2,4,7,1.78212926777381,80811.2317437,80813.02332,0,0.820547300012549,5
165,1,2,5,6,1.31901341761745,80813.8439462,80815.1733243,0,0.607467699999688,5
166,1,1,2,18,1.59941449302225,80815.780942,80817.3912364,0,0.996042800004943,4
167,1,1,2,9,1.21553454383214,80818.3874166,80819.6132586,0,1.28565890000027,4
168,1,1,5,2,1.02532825515709,80820.8990709,80821.9358503,0,0.799950100001297,5
169,1,2,9,8,1.30675342926507,80822.7359258,80824.0537013,0,1.11294629999611,6
170,1,2,3,18,1.5471260114698,80825.1668467,80826.7253618,0,1.35370310000144,4
171,1,2,7,18,1.62688997922439,80828.0792067,80829.7173001,0,1.62448699999368,6
172,1,1,1,17,1.74995423713611,80831.3419239,80833.1023268,0,1.27094240000588,3
173,1,2,2,8,1.25529684490847,80834.3733358,80835.6383649,0,1.32710270000098,3
174,1,2,4,16,1.19019885404015,80836.9655944,80838.1654817,0,0.821606600002269,5
175,1,1,9,7,1.97158300106054,80838.9871958,80840.9691921,0,1.35041829998954,6
176,1,2,1,5,1.7451072469135,80842.3196888,80844.0747401,0,1.50773169999593,4
177,1,2,2,18,1.55663905801278,80845.5825984,80847.1500845,0,1.08926980000979,4
178,1,2,4,19,1.04254440714238,80848.2394356,80849.2914954,0,1.03484079999907,5
179,1,1,8,1,1.93934844657001,80850.3264777,80852.2753081,0,1.01373030000832,6
180,1,2,7,15,1.18542765812364,80853.2891977,80854.4843983,0,0.97613119999005,7
181,1,1,7,4,1.12916594811591,80855.460658,80856.6013873,0,1.56127449999622,7
182,1,1,8,12,1.95759057338303,80858.1627687,80860.1314967,0,0.918418199988082,7
183,1,1,6,3,1.64336329146473,80861.0500408,80862.7032365,0,0.978938200001721,5
184,1,1,7,10,1.31619690007196,80863.6822925,80865.0101336,0,1.58453880000161,6
185,1,1,2,7,1.15260154997155,80866.594778,80867.7577894,0,1.20865919999778,4
186,1,2,8,16,1.55992728121196,80868.9666226,80870.5370092,0,0.991514900000766,6
187,1,1,4,14,1.88065710746435,80871.5286502,80873.4199498,0,1.21602960000746,4
188,1,1,7,1,1.6841086354215,80874.6361002,80876.3300651,0,0.953468199993949,6
189,1,2,7,10,1.48751211799557,80877.2836634,80878.7808887,0,0.834554600005504,5
190,1,1,6,13,1.3354469251433,80879.6156101,80880.9615245,0,0.816689999992377,5
191,1,2,3,1,1.07195896896437,80881.7783402,80882.8599046,0,1.02888280000479,4
192,1,2,1,9,1.11506184800659,80883.8889208,80885.0144428,0,1.36123589999625,3
193,1,2,8,7,1.39273961853401,80886.3757591,80887.7781387,0,1.48007340000186,6
194,1,2,8,12,1.67736626720606,80889.258333,80890.9471332,0,1.26833640001132,6
195,1,1,3,2,1.43018021326596,80892.2155791,80893.6565712,0,0.925477199998568,5
196,1,1,6,11,1.61004708534827,80894.5821856,80896.2030742,0,0.850917299991124,5
197,1,2,2,14,1.61591340560031,80897.0541034,80898.6803574,0,1.71115110001119,4
198,1,2,6,21,1.2806581595405,80900.3916465,80901.6832062,0,0.989948499991442,5
199,1,1,9,16,1.10080639788774,80902.6732938,80903.7852549,0,1.60520090001228,6
200,1,1,6,16,1.41679871792516,80905.3905847,80906.8176582,0,1.39524280000478,5
201,1,2,9,10,1.09423714862022,80908.2130041,80909.3178538,0,1.03671599998779,6
202,1,1,9,13,1.85344362321522,80910.3547085,80912.2191716,0,1.0376333000022,6
203,1,2,6,2,1.06933170310441,80913.2569474,80914.336614,0,0.901940800002194,5
204,1,2,6,4,1.58605571982832,80915.2386891,80916.8357014,0,1.6899895999959,5
205,1,1,9,17,1.58053856315316,80918.5258612,80920.1165235,0,1.22649960000126,6
206,1,1,1,22,1.65108812101269,80921.343111,80923.004857,0,1.57038699999976,3
207,1,1,1,15,1.44206719204216,80924.5753912,80926.0273441,0,1.26991079999425,3
208,1,2,1,22,1.73640240545197,80927.2973937,80929.0441591,0,1.06991930000368,3
209,1,2,1,15,1.10529602072306,80930.1142195,80931.2295882,0,0.675770000001648,3
210,1,1,2,6,1.46083589312008,80931.9055012,80933.376649,0,1.14994570000272,4
211,1,1,7,20,1.80280622176285,80934.5266775,80936.3400272,0,1.21394020000298,6
212,1,2,6,20,1.64143288202128,80937.5541582,80939.206245,0,1.00465660000918,5
213,1,1,6,19,1.32983857402016,80940.2110133,80941.5512954,0,0.781309199999669,5
214,1,1,4,15,1.65934091401657,80942.3327543,80944.0021978,0,1.38352020000457,3
215,1,1,2,16,1.53264075998215,80945.3862297,80946.9295367,0,1.16857850000088,4
216,1,1,8,20,1.97125537159877,80948.0982402,80950.0793701,0,1.17388380000193,6
217,1,1,3,14,1.85196746621812,80951.2533287,80953.114545,0,1.62647889999789,4
218,1,1,2,11,1.89633500882304,80954.7411503,80956.647022,0,1.02152489998844,4
219,1,1,8,16,1.10340613933953,80957.66871,80958.7831027,0,0.671496699986164,5
220,1,2,2,21,1.90315636414588,80959.4547261,80961.3684479,0,1.40809260000242,4
221,1,2,5,14,1.65949807116421,80962.776665,80964.4475228,0,0.991241100011393,5
222,1,2,2,17,1.91082718906551,80965.4388961,80967.3598077,0,0.700563499995042,5
223,1,2,3,9,1.70505404542538,80968.060497,80969.7767643,0,0.925939499997185,4
224,1,1,1,10,1.17946396732263,80970.7028672,80971.8940719,0,0.734519800011185,4
225,1,1,5,8,1.82129049097155,80972.628719,80974.4597293,0,1.01160450000316,5
226,1,2,5,8,1.31986042998114,80975.4717737,80976.8011441,0,0.756230300001334,5
227,1,2,3,5,1.03124244634562,80977.5575147,80978.5995108,0,1.97516189998714,5
228,1,1,7,22,1.64066965063163,80980.5748034,80982.2253874,0,1.11591290000069,6
229,1,1,5,14,1.21243952560027,80983.3414039,80984.5656222,0,1.10748820001027,5
230,1,2,7,6,1.75804651691134,80985.6733114,80987.4422523,0,0.884695800006739,6
231,1,1,8,21,1.80438271173339,80988.3275939,80990.1422427,0,0.8296616999869,6
232,1,2,3,10,1.20453684757078,80990.9720386,80992.1867981,0,1.30204570000933,5
233,1,2,1,11,1.10661410606671,80993.4889786,80994.606038,0,0.81405800000357,4
234,1,2,7,17,1.57108751058447,80995.4202467,80997.001561,0,1.27053249999881,6
235,1,2,9,12,1.53701870175619,80998.2722052,80999.8192152,0,1.17972840000584,6
236,1,1,5,5,1.78139250060169,81000.9990967,81002.7911312,0,1.05586969999422,5
237,1,1,9,2,1.91456625641143,81003.8471158,81005.7712178,0,0.871843700006139,6
238,1,2,9,11,1.87405411270609,81006.6431677,81008.5282652,0,0.776536699995631,6
239,1,2,9,18,1.13655851406706,81009.3049066,81010.4514647,0,0.82535579999967,6
240,1,2,9,16,1.43678859371125,81011.2770185,81012.7245819,0,0.793025500010117,6
241,1,1,6,10,1.29366274388009,81013.5177277,81014.8236134,0,1.57099310000194,5
242,1,2,3,19,1.13545061557461,81016.3947609,81017.5410918,0,0.834763100006967,5
243,1,2,2,13,1.09036916072871,81018.3759231,81019.4761252,0,1.44763319999038,4
244,1,2,4,20,1.43575547472564,81020.9238753,81022.3692283,0,0.895387299999129,5
245,1,1,9,8,1.83200048765298,81023.2647712,81025.107653,0,0.899052599997958,6
246,1,2,1,14,1.14059855335117,81026.0068303,81027.1570726,0,1.2014433999866,4
247,1,1,4,10,1.91423290911242,81028.3586378,81030.2837424,0,0.766582299998845,5
248,1,1,9,6,1.83997319460122,81031.0504595,81032.9009011,0,1.02780799999891,6
249,1,1,4,7,1.83168328626445,81033.9288518,81035.7713253,0,1.09956570000213,5
250,1,2,3,12,1.91159351042271,81036.8710642,81038.7933408,0,0.928885100001935,4
251,1,2,4,14,1.48514225630588,81039.7223446,81041.2176348,0,1.37224859998969,5
252,1,2,2,1,1.18997599637424,81042.5900514,81043.7905887,0,1.06592020000971,4
253,1,1,9,5,1.24482147231177,81044.8566115,81046.1123304,0,0.975535999998101,6
254,1,1,6,15,1.11772894759096,81047.0879477,81048.2155371,0,1.19927110000572,6
255,1,1,3,16,1.99630831405304,81049.414952,81051.4223015,0,0.789467599999625,5
256,1,2,8,15,1.69369130641967,81052.211889,81053.9161826,0,1.12812579999445,6
257,1,1,2,8,1.60857684022177,81055.0444378,81056.6625963,0,1.2650078000006,4
258,1,2,6,7,1.35241135827792,81057.9277166,81059.291135,0,0.663121599995065,5
259,1,1,2,4,1.22168017896241,81059.9543701,81061.1864469,0,1.56432679999853,4
260,1,2,1,19,1.45435355764553,81062.7509002,81064.2157865,0,1.65205910000077,4
261,1,2,1,7,1.13569184501778,81065.8679974,81067.0135024,0,0.931951899998239,4
262,1,1,6,18,1.88517883073312,81067.9455361,81069.8413242,0,0.940628800002742,5
263,1,2,6,8,1.93012294752162,81070.7820821,81072.7228274,0,1.48185090000334,5
264,1,1,4,11,1.25794486995015,81074.2048084,81075.472643,0,0.80358459999843,5
265,1,1,1,5,1.47948810850829,81203.6392923,81205.1310905,0,1.63202610000735,4
266,1,1,1,1,1.48187240020829,81206.7632673,81208.2551339,0,0.780568099988159,4
267,1,2,4,10,1.13025839440277,81209.0358862,81210.1769515,0,0.634022300000652,5
268,1,1,2,22,1.44585363967023,81210.8110721,81212.2675112,0,1.0452118999965,4
269,1,1,2,5,1.00458705532089,81213.3128576,81214.3292922,0,1.07488040000317,4
270,1,1,4,1,1.4013509275499,81215.404294,81216.8161656,0,0.729497199994512,5
271,1,1,5,6,1.37867546811269,81217.5457921,81218.9360103,0,0.810737099993275,5
272,1,1,1,9,1.07811983086497,81219.7468746,81220.8350474,0,1.10368390000076,4
273,1,1,1,11,1.38850773012896,81221.9388672,81223.3393322,0,0.926067899999907,4
274,1,1,4,8,1.88165399995298,81224.2655717,81226.1581138,0,0.839089699991746,5
275,1,2,1,20,1.58066988545283,81226.9973627,81228.5884677,0,1.74628700000176,3
276,1,2,7,16,1.76435179383937,81230.334919,81232.1100739,0,1.32198800001061,6
277,1,2,5,21,1.12042075053222,81233.4322098,81234.5637212,0,0.96464069999638,5
278,1,1,4,12,1.05405630083818,81235.528502,81236.5927923,0,0.791977300003055,5
279,1,1,4,2,1.84821567679865,81237.3849148,81239.2444086,0,0.80309909999778,5
280,1,2,6,3,1.93743608110891,81240.0476272,81241.9954053,0,0.838286300000618,5
281,1,1,9,19,1.83469878714825,81242.8338228,81244.678765,0,0.921922900000936,6
282,1,2,1,8,1.42171390880568,81245.6008452,81247.0329648,0,1.28944229999615,3
283,1,1,1,14,1.60155786360794,81248.3225727,81249.9351255,0,0.959289300008095,3
284,1,2,5,2,1.91846470170204,81250.8945806,81252.823858,0,0.642118099989602,5
285,1,1,4,19,1.76800654241266,81253.4661064,81255.2442778,0,0.733577400009381,5
286,1,1,4,3,1.08014309281755,81255.9779836,81257.0691877,0,0.986609399988083,5
287,1,1,2,14,1.94059472816542,81258.0559256,81260.0059628,0,0.690243699995335,5
288,1,2,6,14,1.65522438002024,81260.6963564,81262.3615129,0,0.786667100008344,5
289,1,1,8,9,1.68782415455781,81263.1483342,81264.8461217,0,1.55496870000206,6
290,1,1,3,15,1.38887761610268,81266.4013049,81267.8001759,0,1.88767090000329,3
291,1,1,9,4,1.52167226617404,81269.6880499,81271.2198202,0,1.52548320000642,6
292,1,1,1,8,1.72686712890631,81272.7454185,81274.4830662,0,1.16442629999074,4
293,1,1,7,12,1.63708895212939,81275.647609,81277.2955983,0,1.39903840000625,6
294,1,2,5,18,1.43386319184659,81278.6947529,81280.1392271,0,0.963337100009085,5
295,1,1,2,10,1.21901407857414,81281.1026946,81282.3322354,0,1.87147260000347,4
296,1,2,7,9,1.5338982130792,81284.2038389,81285.74898,0,1.10158200000296,6
297,1,1,5,20,1.91437930502702,81286.8506642,81288.7753519,0,0.987277899999754,5
298,1,1,9,12,1.21667608551595,81289.762731,81290.9894398,0,0.984528899993165,6
299,1,1,2,3,1.66363046778284,81291.9740316,81293.6463272,0,1.45101279999653,4
300,1,2,3,15,1.71519837421429,81295.0974801,81296.822951,0,1.37088420000509,3
301,1,1,7,5,1.00721182192279,81298.1939761,81299.2123125,0,1.9538135999901,5
302,1,2,5,15,1.01979788883085,81301.1662561,81302.1962767,0,1.00623280000582,5
303,1,1,5,3,1.63684110541165,81303.2026575,81304.8500445,0,0.754177100010565,5
304,1,1,9,9,1.76979900188469,81305.6043458,81307.3851763,0,1.05610739999975,6
305,1,2,9,13,1.151714827755,81308.4414426,81309.6037265,0,0.97860459999356,6
306,1,2,5,13,1.05935159934708,81310.5824998,81311.6518865,0,1.03221950000443,5
307,1,1,9,11,1.47112804045025,81312.6842372,81314.1670783,0,0.964667199994437,6
308,1,2,5,9,1.62990868166481,81315.1318865,81316.772447,0,1.45059449999826,4
309,1,2,9,19,1.52893602208885,81318.2231628,81319.7628129,0,1.16714040000807,6
310,1,1,8,18,1.44294889023668,81320.93006,81322.3830097,0,1.03357620000315,6
311,1,2,4,22,1.77004677095255,81323.4166591,81325.1973136,0,0.776841099999729,5
312,1,1,8,3,1.25935857793951,81325.9743203,81327.2436166,0,1.55744190000405,6
313,1,1,2,17,1.99065523252025,81328.8011874,81330.8023745,0,1.42618930000754,4
314,1,1,2,2,1.87546413750895,81332.2286471,81334.1137601,0,0.721902800010866,5
315,1,1,4,4,1.87242542219901,81334.8357674,81336.7185019,0,0.869157799999812,5
316,1,1,3,8,1.24879566287176,81337.5878229,81338.8468297,0,1.22752559999935,4
317,1,1,5,12,1.51475581228979,81340.0744724,81341.599675,0,1.32216309999058,5
318,1,1,9,18,1.0840772366648,81342.9219677,81344.0160288,0,1.35197039999184,6
319,1,1,9,20,1.23011183113549,81345.3680771,81346.6090264,0,0.831038500007708,6
320,1,2,8,2,1.41165883021543,81347.440194,81348.8630714,0,1.74926450000203,6
321,1,1,8,14,1.9079421211028,81350.6124755,81352.5306198,0,1.11897359999421,6
322,1,1,6,8,1.92884141908867,81353.6497464,81355.5886121,0,0.842851400011568,5
323,1,2,8,21,1.69570342094323,81356.4316311,81358.1380089,0,1.062989500002,6
324,1,1,3,21,1.89478011794526,81359.2012133,81361.1059264,0,1.05118869998842,4
325,1,2,6,1,1.60626117607035,81362.157257,81363.7745441,0,1.27900870000303,4
326,1,1,5,16,1.08099375704601,81365.053775,81366.1447267,0,1.01117289999092,5
327,1,2,7,22,1.05502726449688,81367.1560348,81368.2218533,0,1.13480460000574,6
328,1,2,3,11,1.97369691984787,81369.3567987,81371.3415427,0,1.41291070000443,4
329,1,1,3,6,1.96665884679741,81372.7545881,81374.7320968,0,1.5992760000081,4
330,1,2,2,9,1.76038124235745,81376.3314601,81378.1018014,0,0.992205799993826,3
331,1,1,5,15,1.39075198604668,81379.0941295,81380.4955324,0,1.70165589998942,5
332,1,2,4,21,1.64705107143888,81382.1973274,81383.8553105,0,0.897502299994812,5
333,1,2,6,12,1.20616596056348,81384.7529136,81385.9694056,0,1.02032460000191,5
334,1,2,9,20,1.91259517646679,81386.9898811,81388.9138009,0,0.883008199991309,6
335,1,1,7,17,1.54207715967205,81389.7969442,81391.3496444,0,1.09888749998936,6
336,1,1,5,10,1.38076656027527,81392.4486524,81393.8397732,0,1.15062889999535,5
337,1,2,5,10,1.13828098707072,81394.9905271,81396.1385983,0,0.783321200011414,5
338,1,2,7,12,1.67043320478407,81396.922026,81398.6026716,0,0.910809699998936,6
339,1,1,4,13,1.66732530802608,81399.5136004,81401.1913296,0,1.18459289999737,5
340,1,1,3,11,1.69580330529953,81402.3760654,81404.0827021,0,1.03509039999335,4
341,1,2,3,20,1.70193869596423,81405.1180325,81406.8301582,0,1.25502870000491,3
342,1,1,7,9,1.67153251903451,81408.0852905,81409.7671585,0,1.33035419999214,6
343,1,1,8,22,1.01313568015639,81411.0976201,81412.1206577,0,1.03442080000241,6
344,1,2,5,3,1.19323426020372,81413.1552074,81414.3605073,0,1.2556087999983,5
345,1,2,3,7,1.37053697826414,81415.6162573,81416.9968725,0,1.10120129999996,4
346,1,1,5,17,1.84253199738613,81418.0982794,81419.9513918,0,0.824249700002838,5
347,1,1,1,13,1.90275593967605,81420.7757619,81422.6887704,0,1.18946530000539,4
348,1,1,7,15,1.7193937725596,81423.8783805,81425.6079367,0,1.26737249999132,6
349,1,1,8,2,1.28690044316673,81426.8754608,81428.1725785,0,1.09957839999697,6
350,1,2,8,19,1.59894281012043,81429.272314,81430.8811031,0,0.868209100008244,5
351,1,2,7,8,1.22790084546647,81431.7494617,81432.9871538,0,0.85402929999691,5
352,1,2,2,10,1.48671992231468,81433.841355,81435.3383507,0,0.934330300005968,4
353,1,2,9,4,1.81455392360201,81436.2728436,81438.0985769,0,1.201358300008,6
354,1,1,6,17,1.81618961013052,81439.3000804,81441.127991,0,1.04004110000096,5
355,1,1,7,11,1.43916725661115,81442.1681564,81443.6189652,0,1.41033119999338,6
356,1,1,1,6,1.95088843714677,81445.0294367,81446.9903347,0,1.4214123999991,5
357,1,1,8,5,1.75070767451722,81448.4118843,81450.173964,0,1.05591749999439,6
358,1,2,6,11,1.3717864097786,81451.2300273,81452.6124591,0,0.93316380000033,5
359,1,2,1,21,1.5269831115605,81453.5457701,81455.0828009,0,1.13573950000864,4
360,1,2,4,12,1.21507992069224,81456.2186596,81457.4448805,0,1.48971179999353,5
361,1,1,7,7,1.09768450164093,81458.9347235,81460.0435866,0,1.23780000000261,6
362,1,2,4,11,1.09289085176658,81461.2815362,81462.3846471,0,1.6787411999976,5
363,1,2,1,13,1.84011492609968,81464.0635475,81465.9144571,0,2.12671049998607,6
364,1,1,7,6,1.40522168438541,81468.0412403,81469.4568711,0,1.37134179999703,6
365,1,2,2,6,1.78154418409936,81470.8283461,81472.6233219,0,0.997098699997878,5
366,1,2,2,15,1.56123765298172,81473.6205306,81475.1934384,0,0.949128399995971,4
367,1,1,2,20,1.81766452294007,81476.1427053,81477.970753,0,0.863660100003472,4
368,1,1,8,8,1.75121674763006,81478.8345946,81480.5958573,0,0.941047200001776,5
369,1,1,7,16,1.39702261219361,81481.5370616,81482.9453819,0,1.12835879999329,5
370,1,1,7,3,1.99435206880127,81484.073878,81486.0782705,0,1.35281129999203,6
371,1,2,1,18,1.05275913678574,81487.4312438,81488.4940599,0,0.998553299999912,4
372,1,1,8,10,1.5415888699441,81489.4927943,81491.0440455,0,1.03564089999418,6
373,1,1,5,7,1.34453209737672,81492.0798617,81493.4336826,0,0.942725299988524,5
374,1,2,7,14,1.27001426758917,81494.3765727,81495.6566898,0,1.28156629999285,6
375,1,2,4,15,1.29954365019117,81496.9384178,81498.2481853,0,1.4974641000008,4
376,1,2,9,1,1.22023175982505,81499.7457873,81500.9761495,0,1.31720639999548,6
377,1,1,5,11,1.49628495672623,81502.2935347,81503.8004192,0,0.709938100000727,5
378,1,1,3,7,1.69409902076268,81504.5104659,81506.2157674,0,1.10039909998886,4
379,1,1,5,19,1.19564423809616,81507.3162707,81508.5222363,0,1.13615809999465,5
380,1,2,2,5,1.22820217681277,81509.6585196,81510.8971679,0,1.15302490000613,4
381,1,1,5,9,1.38437237450139,81512.05054,81513.444453,0,1.1771185999969,4
382,1,2,3,4,1.38231867006793,81514.6217213,81516.0144262,0,0.988775100006023,5
383,1,2,4,13,1.58428026217217,81517.0033477,81518.5982645,0,0.906619399989722,5
384,1,2,8,22,1.33430792735442,81519.5049842,81520.8495493,0,1.10712330001115,6
385,1,1,6,20,1.37686497778058,81521.9567889,81523.3449796,0,2.1292867000011,5
386,1,1,5,1,1.04775072141771,81525.4744144,81526.53241,0,0.749133899997105,5
387,1,1,5,4,1.60557113177091,81527.2816911,81528.8980626,0,0.819351500002085,5
388,1,1,6,22,1.48246493006411,81529.7175563,81531.2102846,0,0.819368600001326,5
389,1,2,9,22,1.33495305040878,81532.0298004,81533.374841,0,0.861936100001913,6
390,1,1,8,13,1.75748286596464,81534.2369384,81536.0049173,0,1.03274680000322,6
391,1,2,1,17,1.97192210238692,81537.0377465,81539.0195026,0,0.85579040000448,4
392,1,2,1,6,1.71149964504339,81539.8754771,81541.5975026,0,0.875031000003219,5
393,1,2,7,20,1.8943822815675,81542.4726551,81544.3777316,0,0.887360699998681,6
394,1,2,5,11,1.67435891078173,81545.265218,81546.949348,0,0.831883100006962,5
395,1,1,5,18,1.05043977016955,81547.7813548,81548.8418629,0,0.975940300006187,5
396,1,2,3,6,1.44493548314825,81549.8179755,81551.2732401,0,0.886425900011091,5
