ID,State,Position ID,Morph Step,Face Person,ITI,Trial_Onset,Stim_Onset,Stim_Offset,RT,Answer
1,1,2,8,14,1.63209079709338,3660.6236176,3662.263384,0,1.03645420000021,9
2,1,1,2,18,1.5466992010679,3663.3003648,3664.857251,0,1.1307498000001,2
3,1,2,5,22,1.99665408644425,3665.9888185,3667.992967,0,1.49166299999979,4
4,1,2,1,22,1.94102533157563,3669.485123,3671.4334278,0,1.55445389999977,1
5,1,1,1,12,1.50024247494794,3672.9895756,3674.4981309,0,0.945720900000197,1
6,1,1,2,13,1.50185942018527,3675.4444253,3676.9510244,0,0.932824800000162,2
7,1,1,9,11,1.56429827299661,3677.8840449,3679.4555987,0,0.924574600000142,8
8,1,1,6,11,1.26134455755942,3680.380415,3681.6511696,0,1.10503080000035,6
9,1,1,1,3,1.10523580026685,3682.7562527,3683.8685435,0,1.19171779999988,4
10,1,2,6,20,1.94347092316105,3685.060374,3687.0102596,0,1.15358789999982,7
11,1,2,9,7,1.18324376505958,3688.1638948,3689.3555626,0,1.2995805999999,8
12,1,2,5,19,1.58685581870328,3690.6557792,3692.2505553,0,1.11388269999998,3
13,1,2,7,16,1.56477992079702,3693.3645045,3694.9353678,0,0.732651199999964,8
14,1,2,7,5,1.05345101100991,3695.6680686,3696.7305706,0,0.817612199999985,8
15,1,2,7,13,1.14702164207252,3697.5482617,3698.7024004,0,0.541941099999804,7
16,1,1,8,6,1.89308627801661,3699.2443954,3701.1450177,0,0.795044299999972,7
17,1,2,8,1,1.29601318166118,3701.9401149,3703.2453933,0,0.782512499999939,9
18,1,1,5,1,1.24421136428198,3704.0279589,3705.27964,0,0.964344199999687,3
19,1,2,3,19,1.62415717147164,3706.244031,3707.8745042,0,0.609620499999892,2
20,1,2,4,9,1.32278935399728,3708.4842108,3709.8148191,0,0.667484199999762,4
21,1,1,4,15,1.33082197381558,3710.4823515,3711.8212526,0,0.823230499999681,2
22,1,1,9,20,1.70882123651998,3712.6445524,3714.3597812,0,0.6683936000004,8
23,1,1,5,21,1.41471294037698,3715.0282225,3716.449076,0,0.715775900000153,2
24,1,2,7,19,1.84836192427717,3717.1652791,3719.0220622,0,0.782417899999928,9
25,1,2,1,9,1.57765552842667,3719.8045474,3721.391414,0,0.70064149999962,3
26,1,2,6,17,1.6738050698518,3722.0921272,3723.770346,0,0.737574400000085,6
27,1,2,5,9,1.46951754533109,3724.5080543,3725.9844696,0,0.93166569999994,7
28,1,1,6,10,1.88985557906722,3726.9162377,3728.8130818,0,1.46363729999985,3
29,1,2,9,15,1.42781585273513,3730.2770473,3731.7151024,0,1.02658470000006,8
30,1,2,3,22,1.71496954070881,3732.7426835,3734.4668389,0,0.993654400000196,2
31,1,1,8,9,1.17624525158399,3735.4605456,3736.6420235,0,1.02606419999984,8
32,1,2,7,22,1.29146927002456,3737.6681365,3738.9672881,0,1.46889689999989,7
33,1,1,2,9,1.17218036787637,3740.4362488,3741.6179537,0,1.59510060000002,2
34,1,1,8,17,1.16274793625539,3743.2139893,3744.3848331,0,1.53125170000021,8
35,1,1,1,10,1.2989068710287,3745.9161432,3747.2232176,0,1.66117689999965,2
36,1,2,4,8,1.29871306900687,3748.884516,3750.1922127,0,1.70793990000038,4
37,1,1,2,3,1.57603257332447,3751.90021,3753.4828866,0,1.57699660000026,3
38,1,1,6,13,1.25876807470554,3755.0599576,3756.3228772,0,1.67370159999973,3
39,1,1,8,1,1.72541443914186,3757.9967819,3759.7301988,0,1.17767090000007,7
40,1,1,1,14,1.01552987281629,3760.9079332,3761.93003,0,1.32992509999985,1
41,1,1,6,22,1.57954531750773,3763.2600038,3764.8479803,0,1.49267879999979,4
42,1,1,7,3,1.23255181011624,3766.340711,3767.580807,0,2.00716820000025,6
43,1,1,2,4,1.33759823873002,3769.5880332,3770.9321873,0,1.495813,2
44,1,2,4,16,1.28600235816193,3772.4284325,3773.7223632,0,1.40246960000013,5
45,1,1,3,12,1.50145240802496,3775.1249609,3776.6327962,0,1.18716989999984,2
46,1,1,7,1,1.48495570548103,3777.8200352,3779.3091517,0,0.967409500000031,8
47,1,2,1,19,1.21738810738898,3780.2766287,3781.5022159,0,2.02965739999991,2
48,1,1,5,4,1.05213620472477,3783.5319605,3784.5920939,0,1.28466320000007,5
49,1,1,3,10,1.89776270617237,3785.8770472,3787.7826381,0,1.1897057000001,2
50,1,1,3,3,1.27818693488968,3788.9725816,3790.2581521,0,1.07370609999998,5
51,1,2,3,15,1.7745331626096,3791.3319341,3793.1123519,0,1.1075393000001,2
52,1,2,1,5,1.94401555635031,3794.2199406,3796.1740957,0,0.998178599999846,1
53,1,1,4,19,1.42355944832073,3797.1727337,3798.6066223,0,1.34142240000028,5
54,1,2,1,6,1.14541564279742,3799.9481204,3801.1001796,0,1.29598850000002,6
55,1,1,5,7,1.68954439970893,3802.3963276,3804.0948232,0,1.47781099999975,6
56,1,2,5,20,1.53224523950037,3805.5727613,3807.112789,0,1.11522100000002,5
57,1,2,7,1,1.74129104937526,3808.2281258,3809.977274,0,1.29120860000012,7
58,1,1,7,13,1.93045017649797,3811.2686154,3813.2058021,0,1.54240820000041,6
59,1,1,8,7,1.35620571587222,3814.7482846,3816.1132122,0,1.33920110000008,7
60,1,2,2,21,1.94732993977098,3817.4525789,3819.4086253,0,1.15565819999983,2
61,1,2,2,20,1.48916398845699,3820.5643484,3822.0595453,0,1.18514379999988,1
62,1,2,4,20,1.25405363627418,3823.244735,3824.5050348,0,1.31513290000021,5
63,1,1,6,14,1.50235660515858,3825.8202226,3827.3301881,0,1.2925266999996,6
64,1,1,1,2,1.04810449235634,3828.6228689,3829.6795083,0,1.82859909999979,2
65,1,2,5,17,1.18252764355362,3831.5081562,3832.6964658,0,1.19614269999965,5
66,1,2,6,22,1.45536242230411,3833.8926569,3835.3550671,0,1.13712680000026,5
67,1,1,6,15,1.9800643231354,3836.4922411,3838.4816295,0,1.94678209999984,6
68,1,1,5,6,1.73227020331184,3840.4288902,3842.1684101,0,1.34795480000002,5
69,1,1,4,16,1.99287134676004,3843.5164952,3845.5182061,0,1.12589889999981,5
70,1,1,8,22,1.15300202098656,3846.6441996,3847.8069547,0,1.4131854000002,7
71,1,1,1,22,1.3353364883453,3849.2201889,3850.5596809,0,1.34895290000031,1
72,1,2,2,1,1.47255852383504,3851.909005,3853.391146,0,1.23677820000012,2
73,1,2,6,11,1.50712613824985,3854.6280698,3856.1418239,0,1.64639399999987,6
74,1,1,7,4,1.20543958982526,3857.7883023,3858.9982327,0,1.03811860000042,7
75,1,2,8,8,1.6812587951036,3860.0364373,3861.7254491,0,1.32638910000014,8
76,1,2,2,7,1.91779091750835,3863.0519443,3864.9777692,0,1.09023900000011,1
77,1,2,7,8,1.86570842228542,3866.0680563,3867.9422522,0,1.71888100000024,8
78,1,1,3,4,1.57515203818761,3869.6612553,3871.2416792,0,1.65836949999994,4
79,1,2,4,15,1.62741446152574,3872.9001418,3874.5336852,0,2.01477479999994,4
80,1,1,7,20,1.69261303398213,3876.5485879,3878.2473138,0,1.18870160000006,6
81,1,2,9,17,1.98637392452677,3879.4360648,3881.4298858,0,1.47116189999997,8
82,1,1,8,14,1.73728208389402,3882.9013464,3884.6450648,0,0.703075999999783,9
83,1,2,6,1,1.51219704495787,3885.3482179,3886.8691482,0,1.37486119999994,6
84,1,2,3,1,1.55961107476312,3888.244086,3889.8127517,0,1.79122219999999,4
85,1,2,7,14,1.67544436038883,3891.6040213,3893.2874865,0,1.41292330000033,7
86,1,1,8,13,1.81294577238076,3894.7011426,3896.5202646,0,0.820197800000187,7
87,1,1,9,2,1.8418039223147,3897.3413349,3899.189604,0,1.18271299999969,8
88,1,2,9,10,1.48638825693101,3900.3723963,3901.8665369,0,1.09739230000014,8
89,1,1,3,11,1.36987641918317,3902.9639892,3904.3380685,0,1.29937369999971,3
90,1,1,5,22,1.02183779159708,3905.6375869,3906.6683025,0,1.4082500999998,4
91,1,1,9,21,1.37524445577067,3908.0766277,3909.4567453,0,1.31598840000015,7
92,1,2,4,4,1.25919780420588,3910.7727824,3912.0379832,0,1.37442710000005,5
93,1,1,2,5,1.42678493484269,3913.4124752,3914.8476886,0,1.72489180000002,3
94,1,1,1,21,1.40814529131531,3916.5728555,3917.9871942,0,1.08075910000025,2
95,1,1,4,4,1.63774057540529,3919.0682031,3920.7163738,0,1.14364810000006,5
96,1,1,6,8,1.0256224310799,3921.8600703,3922.8935923,0,1.43897650000008,7
97,1,2,9,8,1.58435095341721,3924.3326329,3925.9257826,0,2.26262590000033,8
98,1,2,3,5,1.18255417828501,3928.1885286,3929.3792185,0,1.79308079999964,6
99,1,1,9,16,1.702379384637,3931.17255,3932.8814851,0,1.24300969999967,8
100,1,2,3,10,1.63230144916512,3934.1245518,3935.7665518,0,1.81348600000001,4
101,1,2,1,3,1.07222746298787,3937.5801011,3938.6609695,0,1.25508509999963,4
102,1,1,6,9,1.81668459033501,3939.9161032,3941.740945,0,1.21692239999993,5
103,1,2,2,6,1.19810687324237,3942.9580399,3944.1651284,0,2.45643240000027,4
104,1,1,2,12,1.67963627443831,3946.6217288,3948.3091179,0,1.53496889999997,3
105,1,1,4,10,1.46127990310645,3949.8441474,3951.3126762,0,1.37166869999965,5
106,1,1,7,21,1.48392736658919,3952.6844616,3954.1758491,0,1.22905209999999,8
107,1,1,9,6,1.64592757255004,3955.4050928,3957.057532,0,0.659346200000073,9
108,1,2,3,9,1.47481496669354,3957.7172223,3959.2014219,0,1.61937860000035,2
109,1,2,5,12,1.02481106394717,3960.8209664,3961.853627,0,1.4787280999999,5
110,1,2,2,3,1.1742806207869,3963.3325978,3964.5154839,0,1.20091679999996,4
111,1,1,8,11,1.91514633870649,3965.7164509,3967.6399108,0,2.08430039999985,7
112,1,2,9,2,1.40231276880572,3969.7242594,3971.1351025,0,1.08575870000004,8
113,1,1,2,20,1.83049472224872,3972.2213219,3974.059689,0,1.23291269999982,2
114,1,2,3,17,1.90369771426284,3975.2931755,3977.205662,0,1.67906440000024,4
115,1,2,7,6,1.60178708841081,3978.8848065,3980.493517,0,1.31149940000023,7
116,1,2,6,4,1.2736212405934,3981.8052923,3983.0870466,0,1.44501129999981,6
117,1,2,9,14,1.76649094411318,3984.5321327,3986.3047333,0,1.31641369999988,9
118,1,1,5,12,1.14729589402904,3987.6214628,3988.7761932,0,2.3560622,6
119,1,2,6,7,1.22298390671427,3991.1324141,3992.364524,0,1.23976489999995,6
120,1,1,6,19,1.45042773224437,3993.6043665,3995.0630786,0,1.26987259999987,6
121,1,2,7,11,1.05174851467959,3996.3331735,3997.3942289,0,1.1460189999998,6
122,1,1,6,21,1.30340681088386,3998.5403979,3999.8534548,0,1.6705020000004,6
123,1,2,5,3,1.08271249675166,4001.5240905,4002.6115711,0,1.8089415999998,4
124,1,1,1,4,1.68679005147425,4004.4205775,4006.1146226,0,1.30595730000005,3
125,1,2,1,13,1.17821856279549,4007.4206492,4008.6047532,0,1.10320770000044,2
126,1,1,7,14,1.17208182521651,4009.7080252,4010.8864893,0,1.66214880000007,7
127,1,1,2,11,1.29008674004415,4012.5494936,4013.8486826,0,1.49962640000012,2
128,1,2,3,6,1.28740614039519,4015.3483671,4016.646842,0,1.08526399999982,3
129,1,1,3,22,1.20836153687037,4017.7321766,4018.9478592,0,1.12820920000013,1
130,1,2,1,18,1.84056350573178,4020.076167,4021.9257941,0,0.839252700000088,1
131,1,2,6,10,1.07508303969229,4022.7651877,4023.8475372,0,1.6454748000001,6
132,1,1,7,6,1.90195815735908,4025.4933679,4027.4024003,0,1.00987769999983,2
133,1,2,2,4,1.85859644558449,4163.8792833,4165.7491367,0,1.47147450000011,3
134,1,1,5,17,1.71701944076148,4167.222348,4168.9475241,0,1.51295829999981,4
135,1,1,7,22,1.92548641370007,4170.4605326,4172.3940759,0,1.19451690000005,6
136,1,2,9,9,1.35037903254795,4173.5886442,4174.9480648,0,1.28108160000011,8
137,1,2,7,15,1.63127412626953,4176.229495,4177.8687278,0,0.935576500000025,9
138,1,1,7,9,1.36733627799287,4178.8043566,4180.177571,0,0.946576000000277,9
139,1,1,5,11,1.22174490735928,4181.1242101,4182.3537978,0,1.30756849999943,6
140,1,1,7,5,1.73150597491878,4183.6614449,4185.4018336,0,1.13940120000007,7
141,1,1,2,7,1.87975048473648,4186.5421294,4188.4282247,0,1.44000359999973,2
142,1,1,7,11,1.6216566044296,4189.8682765,4191.5010642,0,1.42315060000055,6
143,1,1,8,20,1.09910992930576,4192.9242797,4194.0325555,0,1.10814339999979,9
144,1,2,9,13,1.50414392763646,4195.1407468,4196.6516146,0,0.832872999999381,8
145,1,2,4,14,1.67704053230058,4197.4845366,4199.1662019,0,1.21403929999997,4
146,1,2,2,18,1.5608374374517,4200.3803097,4201.9505321,0,0.926002600000174,2
147,1,2,1,14,1.3540742590547,4202.8768712,4204.2375679,0,0.85538280000037,1
148,1,2,9,20,1.70533944251622,4205.0932559,4206.8076305,0,1.13251339999988,7
149,1,1,6,3,1.44203461296804,4207.9401929,4209.3910036,0,1.36525220000021,5
150,1,1,3,9,1.86818147021966,4210.7563024,4212.6328772,0,1.73133440000038,4
151,1,1,7,10,1.47181885239373,4214.3642602,4215.8414035,0,1.54763280000043,7
152,1,1,4,8,1.31226239967544,4217.3896337,4218.7080323,0,1.54442740000013,5
153,1,1,5,3,1.67813927158901,4220.2525238,4221.940166,0,1.14400909999949,5
154,1,2,3,12,1.35237560109386,4223.0842427,4224.443344,0,1.40089579999949,4
155,1,1,3,2,1.89619825784154,4225.8443145,4227.7489643,0,0.81555010000011,3
156,1,1,1,11,1.99352394439009,4228.5645957,4230.5647379,0,0.911838799999714,2
157,1,2,6,8,1.39084868046971,4231.4766553,4232.8718446,0,1.32476640000004,8
158,1,2,9,11,1.77857390056871,4234.1966615,4235.9849505,0,1.03593869999986,9
159,1,1,3,19,1.56572208184525,4237.020988,4238.5990648,0,2.71784430000025,5
160,1,2,8,21,1.11184766708881,4241.3172019,4242.4396334,0,1.17272760000014,7
161,1,1,7,8,1.77636979588969,4243.6124321,4245.393133,0,1.35507140000027,7
162,1,1,8,4,1.91912302897731,4246.7482875,4248.6766974,0,0.823387899999943,8
163,1,2,3,20,1.37202684794118,4249.5001697,4250.8804764,0,1.09959030000027,2
164,1,1,2,16,1.47311895131817,4251.9801206,4253.4574483,0,1.51461820000077,7
165,1,1,2,19,1.61327990369402,4254.9721129,4256.5960427,0,2.1441592000001,4
166,1,1,9,18,1.54383379075365,4258.7402717,4260.2940551,0,1.36675990000003,6
167,1,2,5,10,1.63618756774843,4261.6608932,4263.3052058,0,1.52291149999928,5
168,1,2,3,14,1.84546080253628,4264.8281732,4266.6820119,0,1.73040919999949,2
169,1,1,3,17,1.3592114291555,4268.4124939,4269.7801054,0,1.20005270000001,3
170,1,2,5,16,1.46219683685776,4270.9802153,4272.4482593,0,1.39709929999935,5
171,1,2,5,4,1.44892695812266,4273.8456399,4275.3033068,0,2.30934439999965,5
172,1,1,3,18,1.21708777565318,4277.6127034,4278.8359001,0,1.25636219999978,4
173,1,2,1,17,1.77916817720281,4280.0923136,4281.8784853,0,1.30167950000032,1
174,1,2,4,2,1.62586341129712,4283.1802968,4284.8131399,0,1.39974529999927,5
175,1,2,9,3,1.65672973178773,4286.2129608,4287.8773204,0,1.24735640000017,6
176,1,2,8,9,1.22460912149898,4289.1247289,4290.3594279,0,0.89425140000003,7
177,1,2,8,4,1.40813854410654,4291.253727,4292.6689248,0,0.688245700000152,8
178,1,2,6,6,1.07269224446239,4293.3572172,4294.4353503,0,0.936934999999721,7
179,1,2,7,12,1.60228975050395,4295.3723339,4296.984311,0,1.21997360000023,7
180,1,2,3,21,1.40178597768849,4298.2043325,4299.6127373,0,1.36772680000013,4
181,1,2,8,22,1.85518797119137,4300.980672,4302.8416647,0,1.93113189999985,7
182,1,1,8,10,1.65358069848437,4304.7728515,4306.435813,0,0.848573899999792,8
183,1,1,8,15,1.79141812830591,4307.2844401,4309.0841828,0,0.712470599999506,9
184,1,1,4,12,1.97800820646541,4309.7968301,4311.7818303,0,1.7023879999997,4
185,1,1,9,5,1.33651670750829,4313.4842731,4314.8282521,0,1.41794109999955,6
186,1,2,3,3,1.88476962534961,4316.2468696,4318.1393332,0,1.60096620000058,4
187,1,2,4,12,1.67512663117813,4319.7403501,4321.423522,0,1.17255300000033,3
188,1,1,7,7,1.71263655405489,4322.5961227,4324.3129859,0,2.21189919999961,7
189,1,2,3,11,1.4179762289859,4326.52583,4327.9533563,0,1.51492449999932,3
190,1,2,3,18,1.49561510682671,4329.4683294,4330.9725744,0,0.935692000000017,2
191,1,1,9,19,1.84191613332579,4331.9083361,4333.7593445,0,1.94950319999953,8
192,1,1,4,11,1.15974510510673,4335.70892,4336.8745422,0,1.20169919999989,5
193,1,2,3,7,1.0696763090861,4338.0764265,4339.1534134,0,1.35485209999933,4
194,1,2,1,12,1.12036980804619,4340.5083124,4341.6370259,0,1.28724650000004,1
195,1,2,2,22,1.518424552058,4342.9243285,4344.448674,0,0.716190899999674,1
196,1,2,6,13,1.10483271456855,4345.1652222,4346.2781514,0,1.79813449999983,6
197,1,2,4,3,1.34276342441671,4348.0763612,4349.42696,0,1.72915790000025,5
198,1,1,7,2,1.3882657890732,4351.1561884,4352.5508544,0,1.49355429999923,6
199,1,1,5,16,1.67995872427576,4354.044574,4355.7305767,0,1.59446339999977,5
200,1,2,8,11,1.22790140022394,4357.3252781,4358.5617446,0,1.50646790000064,7
201,1,2,8,6,1.51201072311447,4360.0682993,4361.5883999,0,1.28776990000006,7
202,1,2,5,21,1.68973872203331,4362.876238,4364.5765398,0,1.41214089999994,5
203,1,2,8,13,1.55286522721575,4365.9887797,4367.5485616,0,1.55164610000065,6
204,1,1,1,6,1.05642085301938,4369.1002868,4370.1653457,0,1.51155709999966,6
205,1,2,5,8,1.27759944894278,4371.676971,4372.964123,0,1.42475300000024,5
206,1,1,1,7,1.67714309310379,4374.3890018,4376.0730714,0,1.43518399999994,2
207,1,1,5,10,1.83900301210372,4377.5085018,4379.3555364,0,1.70641389999946,5
208,1,2,5,6,1.08759853044954,4381.0622647,4382.1615978,0,1.58707549999963,5
209,1,2,1,11,1.74237714177115,4383.7487445,4385.4989669,0,1.3931532000006,1
210,1,1,7,12,1.78393601720291,4386.892241,4388.6858548,0,1.7185701999997,7
211,1,1,4,6,1.33576589634103,4390.4044716,4391.749366,0,1.50389799999994,5
212,1,2,6,2,1.44762522334407,4393.2535506,4394.7086835,0,2.19941670000026,6
213,1,2,8,12,1.10363383329777,4396.9081561,4398.0164655,0,2.67616700000053,7
214,1,2,4,6,1.36273249148795,4400.6927001,4402.0660446,0,1.53006490000007,5
215,1,1,5,13,1.23099786801847,4403.5961562,4404.8327726,0,1.7953379999999,4
216,1,1,3,15,1.5352633285799,4406.6281573,4408.1730756,0,1.27986260000034,3
217,1,1,2,22,1.80765939142254,4409.4530039,4411.2667017,0,0.801602699999421,2
218,1,1,4,18,1.60795456721173,4412.0683507,4413.6828268,0,1.7057519,4
219,1,1,9,4,1.41607014854603,4415.3886275,4416.8127249,0,1.60760219999975,9
220,1,1,6,20,1.98727863733312,4418.4203753,4420.4149307,0,1.48558310000044,6
221,1,1,9,1,1.31381703520514,4421.900564,4423.223504,0,1.55712530000073,9
222,1,1,2,17,1.1784111598433,4424.7807481,4425.9675997,0,1.46865759999946,2
223,1,2,4,1,1.0421601227555,4427.4363039,4428.4879763,0,1.56419160000041,5
224,1,2,5,7,1.18061833451103,4430.0522258,4431.2386377,0,1.42992069999946,6
225,1,1,3,6,1.00954848214801,4432.668608,4433.6856524,0,2.81503089999933,6
226,1,2,1,10,1.24591979287677,4436.5007618,4437.7545548,0,1.27414469999985,2
227,1,1,6,17,1.05122499046313,4439.0287702,4440.0887702,0,1.81220649999977,7
228,1,1,4,3,1.63154519715059,4441.9010502,4443.5375338,0,2.50675199999932,4
229,1,2,6,5,1.29756599042655,4446.0443436,4447.3468435,0,1.46595799999977,6
230,1,2,9,6,1.09183073995751,4448.8128497,4449.9140956,0,1.43648229999962,8
231,1,2,9,12,1.04200058966649,4451.3509968,4452.4001653,0,1.38060400000086,9
232,1,1,1,8,1.59402888173671,4453.780925,4455.3831036,0,1.1891214999996,1
233,1,2,3,8,1.49550394633761,4456.5722755,4458.0732157,0,1.05910089999998,2
234,1,1,8,8,1.77919842498309,4459.1323661,4460.9191576,0,1.78168809999988,8
235,1,2,4,21,1.81867602737248,4462.7008954,4464.5284819,0,2.20385989999977,4
236,1,1,4,7,1.40890619349068,4466.7323951,4468.1462397,0,1.69903450000038,5
237,1,2,5,11,1.87212791415751,4469.8457636,4471.7263819,0,1.43003630000021,5
238,1,2,7,2,1.16722266397417,4473.1564821,4474.3312046,0,1.56892929999958,6
239,1,2,6,9,1.62189161421775,4475.9002304,4477.5268841,0,1.6940955,4
240,1,2,4,13,1.58633799531845,4479.2211544,4480.816269,0,0.972767600000225,4
241,1,2,9,1,1.29785592311731,4481.7893057,4483.0969666,0,1.75523890000022,9
242,1,2,8,3,1.9739805549249,4484.8522532,4486.8332643,0,2.11549749999995,8
243,1,1,9,7,1.0686519192617,4488.9490741,4490.0267019,0,0.850014599999668,9
244,1,2,2,16,1.59240373669224,4490.8769998,4492.4778182,0,1.00634799999989,1
245,1,1,9,13,1.80628237132053,4493.4843433,4495.2996818,0,1.04046550000021,9
246,1,2,8,20,1.35174213701666,4496.3402146,4497.6997156,0,1.04224059999979,8
247,1,2,5,14,1.51545686183666,4498.7423381,4500.2662616,0,1.88213379999979,3
248,1,2,1,1,1.63837907389655,4502.1484546,4503.7965045,0,1.20828329999949,1
249,1,2,4,18,1.75289402845411,4505.0049124,4506.7662154,0,2.14194810000026,5
250,1,1,3,13,1.19803042474128,4508.908414,4510.1112842,0,1.22113029999946,4
251,1,2,2,11,1.55454812459164,4511.3324609,4512.8969672,0,1.20395069999995,3
252,1,2,5,18,1.41034323127516,4514.1012303,4515.5201049,0,1.58820090000063,5
253,1,1,6,12,1.29270309287983,4517.108391,4518.409568,0,1.46699809999973,6
254,1,1,4,17,1.28794800635044,4519.876674,4521.1733723,0,2.40683510000054,5
255,1,2,1,2,1.67571093447374,4523.5802546,4525.263908,0,1.95626880000054,3
256,1,1,1,15,1.80968342066487,4527.2202235,4529.0377878,0,0.766387300000133,1
257,1,2,5,13,1.89598635195346,4529.804223,4531.7093355,0,2.07102080000004,5
258,1,2,5,15,1.93294836166092,4533.7804114,4535.7247695,0,1.08859160000065,5
259,1,1,8,3,1.52042399184806,4536.8134309,4538.3410606,0,1.11938890000056,6
260,1,1,2,10,1.9787316538676,4539.4605268,4541.4433878,0,1.63346019999972,2
261,1,1,4,20,1.29520629688992,4543.0769234,4544.3811912,0,1.46411830000034,4
262,1,2,7,10,1.55667785258736,4545.8458474,4547.4106611,0,1.60366440000053,6
263,1,2,8,2,1.12280879337301,4549.0146463,4550.1481749,0,1.60015179999937,6
264,1,1,5,14,1.7266709356606,4551.7483749,4553.4814296,0,1.4114626999999,4
265,1,1,7,16,1.7800992294704,4685.0750598,4686.8648534,0,1.57992250000007,8
266,1,2,7,17,1.7599115474804,4688.4452575,4690.2152283,0,0.790298800000528,8
267,1,1,2,8,1.17995027166631,4691.0056302,4692.1947742,0,0.73004630000014,2
268,1,1,2,1,1.77482097558388,4692.9248867,4694.7076709,0,0.841230299999552,1
269,1,2,1,16,1.71770159001578,4695.5490253,4697.2755472,0,0.91279730000042,1
270,1,1,6,16,1.08539822842483,4698.1883929,4699.2805828,0,1.88378159999957,6
271,1,2,3,13,1.27004482862979,4701.1644149,4702.4434891,0,1.04287169999952,7
272,1,1,3,5,1.53617801672965,4703.4865678,4705.0288343,0,1.31243540000014,7
273,1,1,6,7,1.10733320981364,4706.3416495,4707.4577948,0,0.87504380000064,6
274,1,2,4,19,1.29677880920015,4708.3330108,4709.6393222,0,2.10910130000048,4
275,1,1,4,13,1.93208876139396,4711.7487138,4713.688953,0,1.15527870000005,3
276,1,2,3,4,1.35935275448769,4714.8442794,4716.2119417,0,2.16132799999923,4
277,1,2,9,19,1.05532944854534,4718.3734638,4719.437385,0,2.42295019999983,8
278,1,2,5,1,1.79775134327709,4721.860381,4723.6669253,0,2.24942639999972,5
279,1,2,8,17,1.4479163677871,4725.9164003,4727.3712939,0,2.02533040000071,7
280,1,1,2,6,1.80336965677437,4729.3967046,4731.2074281,0,1.78159810000034,4
281,1,2,2,9,1.44752666271624,4732.9893599,4734.4455816,0,1.63266990000011,3
282,1,1,5,9,1.06809400293329,4736.0782975,4737.1543146,0,2.38642600000003,5
283,1,1,4,22,1.75045876106761,4739.5407918,4741.2991736,0,2.32963769999969,5
284,1,2,1,20,1.8162275519681,4743.6288824,4745.4538534,0,2.80659560000004,2
285,1,1,7,15,1.2464991676142,4748.2605214,4749.5161106,0,1.79300740000053,8
286,1,2,8,10,1.69783850838266,4751.3091982,4753.0169688,0,1.18776789999993,7
287,1,2,2,10,1.29364163048819,4754.2049759,4755.5093675,0,1.33490380000057,2
288,1,1,5,19,1.2339675231069,4756.8443185,4758.0824661,0,1.9462196000004,5
289,1,2,4,7,1.76806295056555,4760.0289308,4761.8036188,0,1.62472450000041,6
290,1,2,2,13,1.05688063819199,4763.4283904,4764.4912349,0,2.01788440000018,2
291,1,2,3,16,1.46963252811738,4766.5092011,4767.9866731,0,0.913603599999988,2
292,1,1,2,2,1.10792685930529,4768.9003319,4770.0146646,0,1.00574049999977,2
293,1,1,4,5,1.53088834290144,4771.0204789,4772.5584833,0,2.32653699999992,6
294,1,2,8,5,1.49992827243439,4774.8850731,4776.3920821,0,1.52431509999951,8
295,1,2,1,21,1.74296536335914,4777.9164457,4779.6666856,0,1.06672710000021,2
296,1,1,7,18,1.48137861063476,4780.7336118,4782.223326,0,1.20513070000015,8
297,1,1,1,18,1.19640392963475,4783.4285154,4784.633415,0,0.939105099999324,1
298,1,2,8,7,1.17084418202209,4785.5725674,4786.7518414,0,0.86862310000015,9
299,1,2,8,15,1.42554080920389,4787.6205115,4789.0537446,0,0.926607800000056,1
300,1,2,4,17,1.91157830340143,4789.9804127,4791.9000225,0,2.91233809999994,5
301,1,2,6,12,1.70637667469974,4794.8124304,4796.525429,0,2.51128809999955,6
302,1,2,9,21,1.73980992561901,4799.0371898,4800.7867614,0,0.722085800000059,9
303,1,2,2,8,1.96153476484318,4801.5091048,4803.4755706,0,3.15329920000022,2
304,1,1,1,19,1.93726301935818,4806.6289373,4808.575152,0,1.39060189999964,3
305,1,1,9,17,1.35036162063354,4809.9660672,4811.3245748,0,1.50389499999983,8
306,1,1,2,21,1.51038048888262,4812.8285243,4814.3430481,0,1.65537030000087,2
307,1,1,4,9,1.28124000823434,4815.9988766,4817.287586,0,2.86152259999926,4
308,1,2,4,11,1.49234945192984,4820.1493946,4821.6478514,0,0.796944400000029,5
309,1,1,1,20,1.62310295337519,4822.4448951,4824.0775845,0,1.29487760000029,1
310,1,2,6,15,1.5168311902,4825.3725806,4826.8993386,0,1.1289569999999,8
311,1,1,9,15,1.96686343402766,4828.0283424,4830.0022119,0,0.827042300000357,9
312,3,1,6,6,1.91464125721168,4830.8296253,4832.7507318,0,NaN,None
313,1,2,3,2,1.67519079078655,4836.750966,4838.4356135,0,0.881478100000095,5
314,1,2,4,5,1.9331419090641,4839.3175136,4841.2570089,0,3.3881894999995,6
315,1,1,1,16,1.00084713663031,4844.6452486,4845.6540835,0,1.21530240000084,1
316,1,2,1,8,1.1381391412072,4846.8702515,4848.0181272,0,0.690945600000305,1
317,1,2,7,3,1.23136788296551,4848.7091221,4849.9508908,0,1.50190329999987,7
318,1,1,7,19,1.50259128814993,4851.4529719,4852.9648831,0,0.911758499999451,7
319,1,1,3,1,1.65790608087888,4853.8766918,4855.5447874,0,1.04411619999973,1
320,1,1,4,21,1.01842557080102,4856.5906211,4857.620585,0,1.63184690000071,4
321,1,2,6,3,1.53594879456434,4859.2526932,4860.7988439,0,1.13401129999966,6
322,1,1,5,20,1.38064112118974,4861.9337269,4863.3236905,0,1.41662409999935,4
323,1,1,1,5,1.25680788489323,4864.740371,4866.006885,0,1.33384269999988,2
324,1,1,3,7,1.94881878877672,4867.340813,4869.2982056,0,1.41841430000022,3
325,1,1,8,18,1.39537920202551,4870.7167032,4872.1225387,0,1.28225109999948,9
326,1,1,9,10,1.39364579146129,4873.404898,4874.8079923,0,0.820316600000297,8
327,1,2,8,18,1.06038212681474,4875.628367,4876.6975472,0,0.842761099999734,9
328,1,1,6,1,1.15810196358033,4877.5403557,4878.7025152,0,0.997800600000119,7
329,1,2,2,17,1.4762991613142,4879.7003702,4881.1877061,0,1.12941230000069,1
330,1,1,8,19,1.55195592499254,4882.3176842,4883.8745583,0,1.20202499999959,7
331,1,2,4,10,1.54372539122513,4885.0766415,4886.6264516,0,2.23560840000027,4
332,1,2,7,4,1.402000560269,4888.8621554,4890.2690395,0,1.02384799999982,8
333,1,1,6,2,1.54833365056229,4891.2931007,4892.8488219,0,1.98219179999978,6
334,1,1,9,12,1.48649560231048,4894.8312611,4896.3247403,0,0.960253800000828,9
335,1,1,8,12,1.89531221133741,4897.2850513,4899.1904683,0,0.846064299999853,8
336,1,1,1,1,1.85728279233633,4900.0365823,4901.8994539,0,1.00958540000011,1
337,1,1,1,17,1.30641541570387,4902.9090903,4904.2241389,0,0.980823199999577,1
338,1,1,2,14,1.59128176816644,4905.2050465,4906.8050547,0,0.59253660000013,1
339,1,2,7,7,1.27148188279966,4907.3981073,4908.6799845,0,1.47654620000048,7
340,1,1,3,21,1.61843407087105,4910.156593,4911.7805487,0,1.1999022,4
341,1,1,5,2,1.53314845088753,4912.9805306,4914.5204659,0,1.26841909999985,5
342,1,1,3,14,1.61227858301618,4915.789086,4917.4097905,0,1.13073369999984,2
343,1,2,9,18,1.09161014673259,4918.540572,4919.6418148,0,1.05060569999932,8
344,1,2,5,5,1.09447547638934,4920.6924704,4921.7916212,0,1.53301420000025,6
345,1,2,6,16,1.37918866772021,4923.3249787,4924.7122387,0,1.58118840000043,6
346,1,1,4,2,1.21480324756435,4926.2935545,4927.5168318,0,1.08075000000008,5
347,1,2,2,12,1.84906471808167,4928.5980824,4930.4528941,0,0.935632800000349,1
348,1,2,9,22,1.70012398500037,4931.3885926,4933.0972586,0,0.827146999999968,9
349,1,2,7,20,1.14665451413784,4933.9244543,4935.0779827,0,2.18272680000064,7
350,1,2,5,2,1.64028753537074,4937.2607789,4938.9117099,0,1.62198340000032,5
351,1,1,9,3,1.77292254987157,4940.5338429,4942.3165097,0,1.0561388999995,8
352,1,1,5,18,1.25525633829955,4943.3727001,4944.634498,0,1.35404089999975,5
353,1,2,1,4,1.02132164031157,4945.9886127,4947.0186846,0,1.62704459999986,4
354,1,1,1,9,1.44740645660055,4948.6457947,4950.1020521,0,0.823153399999683,1
355,1,1,9,9,1.35849760633354,4950.9253547,4952.2939017,0,0.943290600000182,9
356,1,1,8,2,1.19326803097222,4953.2372602,4954.4413774,0,0.795733099999779,8
357,1,2,7,21,1.4724683748007,4955.2371642,4956.7179868,0,0.911278599999605,8
358,1,2,1,15,1.68378316432219,4957.629592,4959.3204344,0,0.972098300000653,1
359,1,1,9,14,1.53953493899616,4960.2928543,4961.8412618,0,0.747389600000133,9
360,1,1,5,8,1.05845319755319,4962.5887015,4963.6571435,0,0.883338100000401,2
361,1,2,2,15,1.04564585389011,4964.5405323,4965.5950784,0,2.17781360000026,2
362,1,2,2,5,1.19615354913651,4967.7729423,4968.9769145,0,1.57144369999969,3
363,1,2,6,21,1.48136928598312,4970.548478,4972.0371869,0,1.68776989999969,4
364,1,2,8,19,1.24244217464317,4973.7250179,4974.9763252,0,1.40426899999966,6
365,1,1,3,20,1.69507599429882,4976.3806793,4978.083645,0,1.5370066000005,3
366,1,2,1,7,1.73269747233764,4979.6207269,4981.3611697,0,0.875977100000455,2
367,1,1,8,16,1.79581641766646,4982.2373213,4984.0408762,0,1.22747040000013,8
368,1,2,6,18,1.39503737577675,4985.268403,4986.6715975,0,1.61275130000013,6
369,1,1,9,22,1.53026422041566,4988.2845397,4989.823963,0,0.844681999999921,9
370,1,2,2,14,1.46147404708222,4990.6687807,4992.1392189,0,1.76916400000027,2
371,1,1,8,5,1.19975445762714,4993.9084301,4995.1148582,0,2.03448780000053,8
372,1,1,1,13,1.61098367077709,4997.1502211,4998.7667895,0,0.965977899999416,1
373,1,1,4,14,1.77705249709241,4999.7337324,5001.5200801,0,1.50827000000027,4
374,1,1,6,18,1.24501375013135,5003.0284058,5004.283136,0,1.76954079999996,2
375,1,1,3,16,1.94467668160432,5006.0529379,5008.0044668,0,1.06453599999986,3
376,1,2,8,16,1.89079040929657,5009.0691427,5010.9691606,0,0.987900300000547,8
377,1,1,9,8,1.59284649809413,5011.9572524,5013.560201,0,0.716320599999563,9
378,1,2,2,2,1.91589966451334,5014.2765696,5016.2014012,0,1.57978170000024,2
379,1,1,5,15,1.340916458274,5017.7814383,5019.1309744,0,1.66586279999956,4
380,1,1,3,8,1.23585222577907,5020.7975098,5022.04159,0,1.46696010000051,4
381,1,1,6,4,1.53873384871516,5023.508609,5025.0552914,0,1.9412669000003,6
382,1,2,6,14,1.13717899237101,5026.9966204,5028.1432734,0,1.11727799999971,6
383,1,2,9,16,1.44804836092528,5029.2605989,5030.7178149,0,0.830739500000163,7
384,1,2,4,22,1.54723933302409,5031.5486024,5033.1037576,0,1.38188929999978,3
385,1,2,9,5,1.73130334505832,5034.4859624,5036.2247648,0,0.955880900000011,8
386,1,1,4,1,1.83389368455872,5037.1807109,5039.0231057,0,1.26932969999962,6
387,1,1,6,5,1.50434470057211,5040.2924822,5041.8052452,0,1.00794249999944,6
388,1,2,7,9,1.1372769217159,5042.8133338,5043.9611008,0,1.77939849999984,7
389,1,2,6,19,1.84185541397613,5045.7405511,5047.5905573,0,1.76652790000026,6
390,1,1,5,5,1.6761609637717,5049.3571758,5051.0408609,0,0.875932700000703,6
391,1,2,9,4,1.69615014365135,5051.9170532,5053.6188735,0,1.26578980000068,9
392,1,1,8,21,1.62899939357987,5054.8847482,5056.522637,0,1.52990070000033,9
393,1,1,7,17,1.26790228603641,5058.0526222,5059.3311629,0,0.887187799999992,8
394,1,1,2,15,1.90024366299436,5060.2185631,5062.1270536,0,0.87001650000002,1
395,1,2,7,18,1.10791547187862,5062.9971685,5064.1135067,0,1.7875109000006,6
396,1,2,2,19,1.57459556266355,5065.9014012,5067.4835162,0,1.12945620000028,3
