ID,State,Position ID,Morph Step,Face Person,ITI,Trial_Onset,Stim_Onset,Stim_Offset,RT,Answer
1,1,1,5,18,1.67559144289478,164748.1228079,164749.8253017,0,3.71896129997913,5
2,1,1,2,14,1.58222288035443,164753.5465572,164755.1526073,0,2.48988300000201,2
3,1,1,5,8,1.43259114048071,164757.6436591,164759.102097,0,1.86021640000399,8
4,1,2,2,3,1.37638583333839,164760.9625336,164762.3627633,0,3.46159799999441,6
5,1,1,3,2,1.26621336923032,164765.8256363,164767.1141189,0,3.94302780000726,2
6,1,1,1,13,1.93591871272418,164771.0572459,164773.0167374,0,1.70322120000492,1
7,1,2,5,21,1.63381015474583,164774.7200278,164776.3785698,0,2.53345550000085,4
8,1,1,7,2,1.24377010512499,164778.9120941,164780.1809187,0,2.17196609999519,7
9,1,1,3,13,1.891289090538,164782.3531118,164784.2636515,0,2.93648850001046,2
10,1,1,7,12,1.57081191288781,164787.2002091,164788.7966586,0,3.51529379998101,8
11,1,2,9,1,1.79972436489311,164792.3120309,164794.1354131,0,1.0968779999821,9
12,1,2,1,12,1.36119778446703,164795.2334683,164796.6195115,0,1.78841229999671,1
13,1,1,9,19,1.65461795934204,164798.4079735,164800.0854465,0,2.74663510001847,8
14,1,2,6,14,1.3758817670335,164802.8321503,164804.2322867,0,3.68194380000932,6
15,1,1,2,1,1.97414552359189,164807.9142836,164809.9106546,0,2.34583909998764,2
16,1,1,2,16,1.21664611301767,164812.2566556,164813.4940028,0,2.36185240000486,2
17,1,2,6,1,1.52266119887244,164815.8559016,164817.4059977,0,1.99384330000612,4
18,1,2,8,17,1.02385103274057,164819.3998886,164820.4438332,0,1.86032629999681,6
19,1,2,4,22,1.09192683485231,164822.3042283,164823.4197403,0,2.20413619998726,3
20,1,2,3,22,1.41010379468974,164825.6239491,164827.0587351,0,1.37317259999691,2
21,1,2,6,9,1.8031263100607,164828.4319537,164830.2604442,0,1.71541540001635,5
22,1,1,7,18,1.21594859212933,164831.9759057,164833.2106935,0,1.62907570000971,6
23,1,2,5,3,1.55403104605975,164834.8398242,164836.4165792,0,2.5112017999927,4
24,1,1,9,4,1.38105635497406,164838.9278295,164840.3347277,0,2.28129169999738,9
25,1,1,1,6,1.80886615211028,164842.6160896,164844.4491158,0,1.75090859999182,4
26,1,2,2,19,1.80928086811481,164846.2008309,164848.0351143,0,2.22067549999338,4
27,1,2,8,6,1.18541098758952,164850.2558448,164851.4630025,0,1.9527545000019,7
28,3,1,3,4,1.30303642728231,164853.4158119,164854.7460046,0,NaN,None
29,1,2,2,20,1.46221326293929,164858.7463744,164860.2337599,0,1.62278629999491,3
30,1,2,3,5,1.33508609533599,164861.8569767,164863.2173111,0,1.71060340001713,4
31,1,1,3,19,1.55921869797578,164864.9280157,164866.5116991,0,1.4960992000124,4
32,1,2,9,19,1.99136766938915,164868.0079101,164870.0213899,0,1.57281819998752,7
33,1,2,1,13,1.12843947865505,164871.5942554,164872.7500609,0,1.67382470000302,2
34,1,1,6,11,1.58730619918905,164874.4239508,164876.0315713,0,1.40909450000618,5
35,1,1,6,6,1.93467371650609,164877.4407353,164879.4003156,0,1.2805829999852,5
36,1,1,8,21,1.69052209704297,164880.6813676,164882.3932178,0,1.49353839998366,7
37,1,1,2,10,1.14325127500975,164883.8868018,164885.0530451,0,2.73919880000176,3
38,1,1,3,6,1.93645271621513,164887.7924688,164889.7533188,0,1.47889239998767,4
39,1,2,9,4,1.82807625298061,164891.2324028,164893.084195,0,1.64400589998695,8
40,1,2,3,13,1.97661777203838,164894.7286182,164896.7274165,0,1.9533637999848,4
41,1,1,8,12,1.90015606007003,164898.6810613,164900.6085449,0,1.6716185999976,7
42,1,2,4,11,1.00406460617744,164902.2802263,164903.3059054,0,2.28685800000676,4
43,1,1,9,18,1.2330966726383,164905.5931152,164906.8462159,0,1.2577873999835,7
44,1,1,9,6,1.80901588424795,164908.1040529,164909.9371931,0,1.10281020001275,8
45,1,2,7,9,1.69510588376783,164911.0400581,164912.7611714,0,1.75881460000528,6
46,1,2,7,6,1.40410710872534,164914.5200347,164915.9454589,0,1.65443749999395,6
47,1,1,7,13,1.81919689134228,164917.5999683,164919.4481623,0,1.5437514000223,6
48,1,2,5,15,1.2675887104396,164920.9919662,164922.2784105,0,1.84138389999862,4
49,1,1,6,22,1.73632703048294,164924.1198406,164925.8834184,0,1.1247449000075,5
50,1,2,4,6,1.38562273886889,164927.0086871,164928.4211783,0,1.4667454000155,4
51,1,1,3,8,1.56160053517679,164929.8880048,164931.4735432,0,1.34240659998613,3
52,1,1,6,18,1.4423265004962,164932.8160201,164934.2819203,0,1.49387409997871,5
53,1,2,4,19,1.47220366487664,164935.7758567,164937.2708104,0,1.76111950000632,4
54,1,2,3,11,1.78616574179942,164939.0319783,164940.8397562,0,1.296552099986,4
55,1,1,4,17,1.35013878010533,164942.1363792,164943.508085,0,1.8918052999943,4
56,1,2,2,13,1.19419661964824,164945.3999372,164946.6175222,0,1.76683080001385,2
57,1,1,7,19,1.19741407265785,164948.3844143,164949.6090388,0,2.79125909999129,5
58,1,1,9,9,1.45573543026875,164952.4003614,164953.8832633,0,2.45253750000848,9
59,1,1,6,5,1.18790024290698,164956.3358481,164957.546345,0,2.23745009998675,5
60,1,1,1,15,1.93986008744907,164959.7838436,164961.7471515,0,1.21318019999308,1
61,1,1,6,21,1.27727133037931,164962.9604517,164964.2649264,0,1.39214469998842,5
62,1,2,7,21,1.77214007486834,164965.6571365,164967.4524431,0,1.50772520000464,6
63,1,2,8,11,1.77156734306074,164968.9603161,164970.7513869,0,1.40842049999628,8
64,1,1,1,19,1.84424959584279,164972.1598634,164974.0300832,0,1.9778229999938,3
65,1,2,7,11,1.26961368154722,164976.0079786,164977.299952,0,1.37466679999488,7
66,1,1,4,21,1.92651380860453,164978.6746684,164980.622148,0,1.34013170000981,5
67,1,1,8,17,1.12090807486714,164981.9623855,164983.1066923,0,1.34236879998934,6
68,1,2,3,16,1.45227226405935,164984.4493439,164985.9258815,0,1.45476180000696,4
69,1,2,5,16,1.40777662574063,164987.3806899,164988.8080944,0,1.3416335999791,4
70,1,1,3,11,1.44876182610033,164990.149776,164991.6224725,0,1.20188070001313,4
71,1,2,1,3,1.98907243660586,164992.8246575,164994.8377852,0,1.65630979998969,2
72,1,2,8,12,1.56266567406268,164996.4941976,164998.0819061,0,2.03832910000347,8
73,1,1,7,3,1.54860308030374,165000.1206406,165001.696671,0,1.92759099998511,6
74,1,1,9,15,1.62654441224129,165003.6243105,165005.2782129,0,1.59446500000195,9
75,1,1,6,4,1.05854584890358,165006.8730625,165007.9563673,0,2.14763279998442,4
76,1,1,4,6,1.87687294525491,165010.1040488,165012.0025313,0,2.30955959999119,3
77,1,2,7,19,1.26492369741028,165014.3123337,165015.5994205,0,1.83251800001017,4
78,1,2,9,3,1.12244441015533,165017.4319857,165018.5776135,0,2.24691270000767,8
79,1,1,1,5,1.6769190892742,165020.8245818,165022.5251216,0,2.26689570001327,1
80,1,1,7,17,1.81609215611172,165024.792064,165026.6299261,0,2.36200019999524,6
81,1,2,4,17,1.5503374316959,165028.9919742,165030.5695772,0,1.64644140002201,4
82,1,1,5,10,1.21686637318064,165032.216088,165033.4563681,0,1.76838989998214,4
83,1,2,9,22,1.90214829524605,165035.2249306,165037.1514802,0,1.40855429999647,9
84,1,1,7,5,1.41285937004248,165038.560083,165039.9975893,0,1.68235200000345,6
85,1,1,5,22,1.08020141027776,165041.6800102,165042.7886884,0,1.43609830000787,5
86,1,1,5,3,1.59186054188323,165044.2251069,165045.8416519,0,1.0865278999845,5
87,1,1,7,9,1.44049594679841,165046.92827,165048.3944775,0,2.83737449999899,6
88,1,2,1,6,1.28642583630863,165051.23192,165052.5444633,0,1.71960229999968,4
89,1,2,7,12,1.2476945264579,165054.2642028,165055.5393498,0,1.74858939999831,6
90,1,1,8,11,1.12524092781661,165057.2880006,165058.4381105,0,1.36184420000063,7
91,1,2,7,3,1.81406936285224,165059.8000367,165061.6379922,0,2.77008889999706,6
92,1,1,3,18,1.19807537676435,165064.4081327,165065.6303882,0,1.58863149999524,3
93,1,2,4,8,1.42039642683788,165067.2192381,165068.6640493,0,1.43979270002455,4
94,1,2,2,5,1.72476748311383,165070.1038904,165071.8531159,0,2.20273520000046,1
95,1,2,5,1,1.17505411745004,165074.0558983,165075.2545123,0,2.06563100000494,3
96,1,1,2,8,1.35506971797849,165077.3202113,165078.6989458,0,2.03715280001052,1
97,1,2,7,18,1.96767938037173,165080.7363895,165082.7281537,0,1.81585349998204,6
98,1,2,7,7,1.90586174530337,165084.544076,165086.4753114,0,1.46203970001079,7
99,1,1,5,19,1.54342743917406,165087.9374162,165089.5064463,0,1.13343750001513,5
100,1,1,6,12,1.56843220522554,165090.6399433,165092.2357368,0,1.47611689998303,6
101,1,1,3,10,1.84415807115964,165093.711901,165095.5787749,0,2.08360340000945,3
102,1,2,1,17,1.62123767614896,165097.6624933,165099.3062065,0,1.36873219997506,2
103,1,1,5,13,1.51160789582459,165100.6750483,165102.2108905,0,2.56064410001272,5
104,1,2,1,8,1.69841607631908,165104.7716363,165106.497213,0,1.67065420001745,1
105,1,1,2,20,1.1971907482671,165108.1679138,165109.3912334,0,1.82543520000763,1
106,1,2,4,13,1.77147426078981,165111.2168819,165113.0121844,0,1.58779459999641,5
107,1,1,7,11,1.35790522504191,165114.6000261,165115.9814002,0,1.36611410000478,6
108,1,2,7,8,1.5748619603132,165117.3478307,165118.947454,0,1.58220979999169,7
109,1,2,2,7,1.43738627586417,165120.5297123,165121.9908777,0,1.42511379998177,3
110,1,2,2,18,1.50565140697963,165123.4160416,165124.9458847,0,1.75760400001309,3
111,1,1,1,21,1.04148855208074,165126.7035366,165127.7670596,0,1.98496909998357,2
112,1,1,2,21,1.6978040157574,165129.7520772,165131.4741262,0,0.870290600025328,2
113,1,2,9,21,1.42796045724878,165132.3445484,165133.7955953,0,2.4924852999975,9
114,1,1,1,22,1.48993895831177,165136.288153,165137.803189,0,1.9567706999951,1
115,1,1,2,7,1.37145285551851,165139.7600063,165141.1588972,0,1.44988510000985,3
116,1,2,2,11,1.96857847136612,165142.6089061,165144.6012309,0,1.89475449998281,3
117,1,2,6,16,1.52016330595257,165146.4960503,165148.045211,0,1.63489080002182,5
118,1,1,6,7,1.36612689208377,165149.6801508,165151.0684155,0,0.92357610000181,5
119,1,1,9,10,1.60688214443957,165151.9920559,165153.6226056,0,1.41780850000214,8
120,1,1,4,14,1.50918579272394,165155.0405664,165156.5741484,0,1.74591190001229,5
121,1,1,9,16,1.03440179219729,165158.3201098,165159.3827815,0,1.3212002000073,7
122,1,1,5,2,1.75957658277717,165160.7040308,165162.4857559,0,1.40217529999791,5
123,1,2,6,17,1.58261943476703,165163.8879787,165165.489409,0,1.52648160001263,5
124,1,2,4,18,1.21313640870374,165167.0159561,165168.2538073,0,2.45026670000516,5
125,1,1,8,19,1.50067689235031,165170.704129,165172.2306618,0,1.62535440002102,6
126,1,2,5,7,1.52354327812932,165173.8560994,165175.3979199,0,1.12197580002248,5
127,1,1,6,2,1.95432486876741,165176.519943,165178.4977476,0,1.70217890001368,5
128,1,2,4,3,1.83562552196592,165180.1999753,165182.0588724,0,1.81356629999937,4
129,1,2,3,17,1.03096078130685,165183.8728993,165184.9293003,0,1.66270169999916,3
130,1,2,1,11,1.13530125015199,165186.5920558,165187.7508737,0,1.83322090000729,1
131,1,2,1,4,1.68463616880828,165189.584143,165191.293234,0,1.8669813000015,2
132,1,2,6,12,1.67249911708807,165193.1602644,165194.8570451,0,2.6309599999804,6
133,1,2,3,12,1.97032451073126,165319.3090545,165321.3101525,0,2.52982150000753,3
134,1,1,5,7,1.97648303445303,165323.8414183,165325.8414271,0,1.40688779999618,5
135,1,2,5,2,1.63184117834775,165327.2484009,165328.9037903,0,1.8002999999735,5
136,1,1,1,12,1.20654285116922,165330.7041884,165331.9349258,0,1.23303520001355,2
137,1,2,5,19,1.64759701796719,165333.1680079,165334.8408255,0,2.1511293000076,4
138,1,2,8,8,1.76204699821431,165336.992002,165338.776915,0,1.4979064000072,7
139,1,2,1,15,1.62190212016425,165340.2751013,165341.9180672,0,1.23892560001696,1
140,1,2,9,6,1.76343980570959,165343.1570952,165344.944968,0,2.05014949999168,9
141,1,1,4,8,1.50932784535561,165346.9951694,165348.5247247,0,1.44588020001538,5
142,1,2,1,1,1.25110462050912,165349.9707096,165351.2437935,0,1.86418800000683,2
143,1,1,9,1,1.31513448214864,165353.1080904,165354.4483283,0,1.67434960001265,8
144,1,2,8,19,1.97372942866853,165356.1227895,165358.1189535,0,2.44118359999266,4
145,1,2,3,8,1.40391985441202,165360.560184,165361.9852267,0,3.23128510001698,3
146,1,1,1,7,1.35506531952156,165365.216636,165366.596901,0,1.17920459999004,2
147,1,1,6,3,1.82226282169609,165367.7761541,165369.6188916,0,1.15014589999919,5
148,1,2,8,10,1.49400058122792,165370.769196,165372.2847928,0,3.15528539998922,4
149,1,2,9,8,1.66121820630726,165375.4401573,165377.1289372,0,2.41568969999207,8
150,1,1,5,16,1.61052727893635,165379.5447021,165381.1797447,0,1.50842249998823,4
151,1,2,8,4,1.99027009636686,165382.6882149,165384.700113,0,1.45256559998961,6
152,1,1,6,15,1.45617542857893,165386.152767,165387.6337601,0,1.87859710000339,4
153,1,2,2,21,1.80846815439283,165389.5127153,165391.3491436,0,1.56306230000337,2
154,1,1,1,10,1.4669701137629,165392.9122607,165394.3995602,0,1.60860150001827,1
155,1,1,3,20,1.51666205077652,165396.0082349,165397.546348,0,1.4378339999821,2
156,1,2,1,16,1.88033788284142,165398.9842295,165400.8830777,0,1.07700130000012,1
157,1,2,1,22,1.34813920353173,165401.9601492,165403.3358262,0,1.06455720000667,1
158,1,1,6,19,1.78454649762552,165404.4010962,165406.2001178,0,2.31196110000019,4
159,1,1,5,5,1.4017854941105,165408.5121259,165409.9379297,0,1.14328589997604,5
160,1,1,4,20,1.24355095070596,165411.0813059,165412.3493984,0,1.15509869999369,4
161,1,1,4,3,1.90983783100954,165413.5045674,165415.4362827,0,1.72379950000322,4
162,1,1,6,20,1.65866846809796,165417.1601623,165418.8443386,0,1.1725124999939,4
163,1,1,4,11,1.25339249885635,165420.0170745,165421.2943904,0,1.44240289999289,5
164,1,2,3,7,1.59299354744791,165422.7370339,165424.3515058,0,1.16061180000543,4
165,1,2,7,20,1.98824511299696,165425.5121922,165427.5233546,0,1.08495059999404,6
166,1,2,8,1,1.24732732090173,165428.6091183,165429.8831158,0,1.29329609998967,5
167,1,2,9,18,1.08386311557681,165431.1766648,165432.2824383,0,1.6216081000166,7
168,1,2,2,15,1.03296412507047,165433.9040956,165434.9634567,0,1.60527460000594,3
169,1,1,4,5,1.89323893432258,165436.5689866,165438.4906804,0,1.32534609999857,5
170,1,1,7,4,1.8556932552983,165439.816082,165441.6969428,0,2.319381600013,6
171,1,1,1,8,1.35377018594702,165444.0164014,165445.3925391,0,2.01579180001863,3
172,1,1,7,20,1.17311131527445,165447.4084603,165448.6072545,0,2.1287580000062,5
173,1,1,7,1,1.43302354745704,165450.7360597,165452.1928262,0,3.52812570001697,6
174,1,2,9,7,1.19163646059112,165455.7212462,165456.9378532,0,1.29281079999055,7
175,1,1,4,7,1.80744795154784,165458.2307108,165460.0616074,0,1.73416839999845,4
176,1,2,1,10,1.22749600611253,165461.7958814,165463.0479732,0,1.2086831999768,3
177,1,1,3,1,1.30468510235916,165464.256867,165465.5860303,0,1.07061019999674,2
178,1,1,3,21,1.08205391027621,165466.6567459,165467.7632056,0,0.86891600000672,2
179,1,2,4,20,1.58778473974826,165468.632188,165470.2374771,0,0.745097200007876,2
180,1,2,8,22,1.27371173103873,165470.9826213,165472.2760944,0,1.74074390000897,8
181,1,2,8,7,1.56043089571082,165474.0169331,165475.6041337,0,1.80052109999815,7
182,1,1,2,6,1.85098198843822,165477.4047016,165479.2792245,0,1.54544369998621,4
183,1,2,7,16,1.3951232107802,165480.8247612,165482.2418943,0,1.41659759997856,6
184,1,2,6,15,1.39787811594003,165483.6590936,165485.0796719,0,1.26214130001608,6
185,1,2,9,5,1.17818089309831,165486.3418588,165487.5463037,0,1.67055760000949,8
186,1,2,6,2,1.61856883531018,165489.2169878,165490.8565324,0,1.21643089997815,5
187,1,2,8,2,1.48732865491429,165492.0733936,165493.579948,0,1.20412300000316,7
188,1,2,3,3,1.46656630372914,165494.7841188,165496.2749931,0,1.66918699999223,4
189,1,1,7,7,1.09348801964697,165497.9442502,165499.0654676,0,1.26276729998062,6
190,1,2,5,9,1.24983234526507,165500.3283031,165501.5967748,0,1.45947419997538,4
191,1,1,7,14,1.32113336528666,165503.0563184,165504.4012577,0,1.7276802000124,6
192,1,1,2,18,1.81020906452191,165506.1291825,165507.9614475,0,1.40679789998103,4
193,1,2,3,20,1.69130476926755,165509.3683139,165511.0830038,0,1.62121739998111,3
194,1,2,2,8,1.98643459751903,165512.7042689,165514.7147288,0,1.63750300000538,3
195,1,1,3,7,1.18596003015243,165516.3522806,165517.5607653,0,1.54420840000967,3
196,1,1,9,14,1.84260496145329,165519.105154,165520.9681266,0,1.60020119999535,9
197,1,2,9,13,1.39788316436944,165522.5684008,165523.9941819,0,1.8379271000158,7
198,1,2,7,4,1.35782700562886,165525.8321803,165527.2133765,0,1.0986869999906,6
199,1,2,7,5,1.93174257701752,165528.3121305,165530.2650979,0,1.03093879998778,6
200,1,2,4,14,1.99340108433575,165531.2960992,165533.3114406,0,2.10473560000537,4
201,1,1,9,8,1.45321207802904,165535.4162247,165536.8952701,0,1.52078759999131,7
202,1,2,9,16,1.29899691919883,165538.4161099,165539.7346824,0,2.47353269997984,7
203,1,2,5,8,1.77324363376613,165542.2085755,165544.0026953,0,1.34944570000516,5
204,1,2,9,12,1.36468447374788,165545.3522187,165546.7414619,0,2.59484079998219,7
205,1,2,2,10,1.92381011087163,165549.3363503,165551.2830872,0,2.81363869999768,4
206,1,1,8,5,1.70972120155341,165554.0971253,165555.8334208,0,2.61549090000335,7
207,1,1,6,13,1.18586944068233,165558.4491727,165559.6577878,0,1.8144556999905,5
208,1,2,3,10,1.04029571422262,165561.4723247,165562.5369078,0,1.10349489998771,4
209,1,2,9,9,1.3463723551101,165563.6411293,165565.0169733,0,2.89568109999527,8
210,1,1,9,7,1.60333765341767,165567.9128046,165569.5399067,0,1.26064330001827,8
211,1,2,3,18,1.60629402995939,165570.8006284,165572.4350009,0,2.61446340000839,4
212,1,2,7,13,1.20625919861647,165575.0495561,165576.2802595,0,1.71427729999414,6
213,1,1,6,9,1.64213740933111,165577.9945821,165579.6649119,0,1.59961350000231,5
214,1,1,6,14,1.70480737629969,165581.2645982,165582.9876171,0,1.23006259999238,5
215,1,1,9,21,1.38501319453454,165584.2177951,165585.6235643,0,1.6512839999923,7
216,1,1,8,16,1.42093598323869,165587.2749279,165588.7196057,0,2.48912859999109,7
217,1,1,8,1,1.0898559414784,165591.2090862,165592.3249731,0,1.35603419999825,6
218,1,1,3,17,1.8240262177009,165593.6810801,165595.5286082,0,1.50511870000628,4
219,1,2,5,4,1.00839555945234,165597.0337749,165598.0632184,0,1.84132400000817,5
220,1,1,4,10,1.07296028085542,165599.9046191,165601.0002251,0,0.953043699992122,5
221,1,1,2,12,1.67990510884303,165601.9533173,165603.6544739,0,1.18572779998067,3
222,1,2,6,11,1.27588311599292,165604.8402667,165606.1406062,0,2.05973649999942,6
223,1,1,9,3,1.47989151468347,165608.2005419,165609.7062868,0,1.10208680000505,7
224,1,1,4,4,1.38192747125424,165610.8090245,165612.2156819,0,1.96060190000571,4
225,1,1,2,5,1.08053960133317,165614.1763308,165615.2814531,0,1.71156639998662,2
226,1,2,6,22,1.24121139916498,165616.9932454,165618.2573328,0,2.4230327999976,5
227,1,2,2,9,1.50133703735186,165620.6804626,165622.2058692,0,1.41876249999041,3
228,1,1,5,1,1.67452770104201,165623.6249242,165625.3230268,0,1.49334200000158,4
229,1,1,3,14,1.96354610640328,165626.8164167,165628.8058051,0,1.38651189999655,3
230,1,2,8,3,1.73158735382612,165630.1924358,165631.9497782,0,2.82660489997943,7
231,1,2,2,16,1.46325118841653,165634.7764313,165636.2636704,0,1.46489900001325,3
232,1,2,5,22,1.44632753409195,165637.7289383,165639.19865,0,1.46608739998192,5
233,1,1,9,13,1.65726747563782,165640.6649566,165642.3485711,0,1.27561159999459,7
234,1,1,5,14,1.82615455908891,165643.62426,165645.4756599,0,1.22846730001038,5
235,1,2,3,15,1.83587471614683,165646.7042113,165648.5634211,0,1.82067210000241,3
236,1,1,2,2,1.43022935331639,165650.3841414,165651.8399098,0,1.3843011999852,2
237,1,1,3,9,1.21292162060613,165653.2242574,165654.4602621,0,1.70868680000422,3
238,1,2,1,5,1.56252092475418,165656.169442,165657.7554898,0,1.837449499988,1
239,1,1,3,5,1.95039896839029,165659.593181,165661.5695456,0,2.23068339997553,3
240,1,1,5,11,1.348688879246,165663.8003052,165665.1716212,0,1.28469910001149,5
241,1,2,9,14,1.34193963933342,165666.4563929,165667.8260279,0,1.29443680000259,9
242,1,2,3,14,1.376384815706,165669.1205419,165670.5217124,0,1.85436820000177,4
243,1,2,1,20,1.90112766083659,165672.3761347,165674.3019821,0,1.45011939998949,1
244,1,1,1,11,1.84412083510815,165675.7521566,165677.6187399,0,1.92564830000629,3
245,1,2,4,12,1.58336753058542,165679.5444666,165681.149216,0,1.35489109999617,5
246,1,1,9,22,1.3082142492255,165682.5041583,165683.8371895,0,1.63540330002434,8
247,1,2,6,5,1.20552167975571,165685.4726718,165686.7041151,0,2.61601259998861,5
248,1,2,6,4,1.83825702720556,165689.3201744,165691.1814751,0,1.58663249999518,6
249,1,1,7,15,1.58026698893474,165692.7681618,165694.3717129,0,0.93261670001084,6
250,1,1,8,2,1.50666816112291,165695.3043989,165696.8356646,0,1.8927331000159,7
251,1,1,5,21,1.30466167529509,165698.7284815,165700.0541095,0,1.858121199999,4
252,1,1,1,14,1.58249637990194,165701.9123002,165703.512313,0,3.36249809997389,3
253,1,1,4,22,1.50741355676082,165706.8748849,165708.4075963,0,2.22461760000442,4
254,1,2,5,18,1.31301033817979,165710.6322995,165711.9691603,0,2.04995939999935,5
255,1,2,6,18,1.94982067813314,165714.019224,165715.9954079,0,1.54081130001578,6
256,1,2,2,12,1.00734347591623,165717.5362686,165718.565841,0,2.11436109998613,3
257,1,1,1,9,1.95931598683242,165720.6802485,165722.6637802,0,1.86498939999728,2
258,1,1,8,20,1.99477413997174,165724.5293175,165726.5456326,0,2.73468369999318,7
259,1,2,6,20,1.12319526330675,165729.2803934,165730.4268399,0,1.73423729999922,5
260,1,1,1,1,1.00454145408895,165732.1614681,165733.1910841,0,1.56972369999858,2
261,1,2,9,11,1.62850103774958,165734.7610708,165736.4169061,0,2.18344120000256,9
262,1,2,6,10,1.99603843916319,165738.6004306,165740.6187675,0,1.71831419999944,6
263,1,2,5,6,1.35749935177095,165742.3372482,165743.7193833,0,1.82502930000192,4
264,1,2,6,19,1.4378588903396,165745.5444828,165747.0063798,0,1.62601909998921,3
265,1,2,7,14,1.01830496843765,165877.272634,165878.3189498,0,1.10534599999664,7
266,1,2,4,4,1.74656336688277,165879.4243787,165881.1949184,0,1.40535690000979,4
267,1,2,9,17,1.97814593122821,165882.6003495,165884.6003,0,2.85593640001025,3
268,1,2,8,5,1.09769914326523,165887.4562826,165888.5778766,0,2.7824139999866,7
269,1,2,5,11,1.44332068075129,165891.3603609,165892.8314783,0,2.08112109999638,5
270,1,1,7,10,1.80040226388865,165894.9129361,165896.741117,0,1.43513150000945,6
271,1,2,8,16,1.2594956728666,165898.1762962,165899.4589016,0,1.36560550000286,7
272,1,2,5,12,1.21235965861356,165900.8245547,165902.0605377,0,1.00364710000576,5
273,1,2,4,5,1.10964236139363,165903.0642493,165904.1967615,0,1.48362270000507,4
274,1,1,3,16,1.72856028936122,165905.6805088,165907.427739,0,1.79662509998889,3
275,1,1,3,12,1.24613721548508,165909.2244108,165910.4942256,0,1.49795849999646,3
276,1,1,1,3,1.90880408176064,165911.9922388,165913.9278489,0,1.4963410999917,2
277,1,2,2,14,1.0490465526196,165915.424236,165916.500456,0,2.4769449000014,1
278,1,2,7,22,1.32838851184229,165918.9778379,165920.3336691,0,2.20270190000883,4
279,1,2,5,14,1.55664289782769,165922.5364189,165924.1189939,0,1.78521140001249,4
280,1,1,5,12,1.5171722335056,165925.9042616,165927.4411798,0,1.59918410002138,5
281,1,1,8,6,1.33884390807975,165929.0404128,165930.4068956,0,3.63371880000341,7
282,1,2,7,2,1.36567432000315,165934.0408336,165935.4298152,0,1.44247919999179,6
283,1,1,1,18,1.10636132778551,165936.8723481,165937.9986983,0,1.80978929999401,1
284,1,1,8,3,1.63171110877606,165939.8086219,165941.461511,0,3.37223390000872,7
285,1,2,9,2,1.95470880719058,165944.8337907,165946.8146114,0,2.20877129997825,7
286,1,1,7,6,1.09082457416599,165949.02343,165950.1366557,0,1.62363830002141,6
287,1,1,9,12,1.34425605348598,165951.7603539,165953.1255184,0,1.21984610002255,7
288,1,2,6,21,1.15336292298945,165954.3456445,165955.5237039,0,1.69789120001951,4
289,1,2,6,8,1.0586949279192,165957.2216965,165958.3044846,0,1.41587890000665,6
290,1,1,3,15,1.22501708083657,165959.7204208,165960.9669729,0,1.52165750000859,3
291,1,2,2,1,1.46595769514546,165962.4898678,165963.9771256,0,3.30269919999409,1
292,1,2,1,21,1.69499889285342,165967.2798705,165968.9985178,0,1.43422239998472,1
293,1,1,4,13,1.44150974862788,165970.4328696,165971.9027554,0,1.84964890000992,4
294,1,1,7,8,1.7149353201462,165973.7524514,165975.4883009,0,2.04817219998222,7
295,1,1,6,8,1.18200327676349,165977.5365485,165978.7463347,0,1.81415069999639,6
296,1,2,1,14,1.97022194871544,165980.5605355,165982.550476,0,1.73002789999009,2
297,1,2,9,10,1.21926797397223,165984.2805511,165985.5210074,0,1.99939290000475,7
298,1,1,6,16,1.96630409348991,165987.5204492,165989.5070395,0,1.98132260001148,6
299,1,2,3,6,1.42434323697022,165991.4884103,165992.9366597,0,1.51984789999551,4
300,3,2,7,10,1.8242125293651,165994.4565558,165996.3018861,0,NaN,None
301,1,1,8,4,1.2339987895213,166000.3020981,166001.5596764,0,1.91368899997906,8
302,1,2,2,17,1.37657101479644,166003.4735247,166004.8776209,0,1.81119249999756,2
303,1,2,6,13,1.32900590682097,166006.6892104,166008.0361503,0,1.33264629999758,6
304,1,2,2,22,1.3138022194323,166009.3688643,166010.7064825,0,1.26985489999061,1
305,1,1,9,5,1.3403145495493,166011.9763863,166013.3436998,0,1.31269340001745,9
306,1,1,7,16,1.73401428327404,166014.6564656,166016.4153067,0,1.24935710002319,6
307,1,2,8,20,1.33689505647487,166017.6648102,166019.0256869,0,0.958651700027985,6
308,1,1,2,15,1.90539120159854,166019.9844494,166021.9130597,0,1.2712862000044,3
309,1,2,7,17,1.84573243923751,166023.1843919,166025.0571513,0,2.19108600000618,6
310,1,1,5,9,1.48896282148613,166027.2482918,166028.7618703,0,1.68640170001891,4
311,1,2,2,6,1.50026565287408,166030.448347,166031.9739069,0,2.12357239998528,4
312,1,1,8,10,1.58194061094889,166034.0978912,166035.7084218,0,1.29983390000416,7
313,1,1,4,19,1.10875637143116,166037.0083059,166038.1424458,0,1.29006569998455,4
314,1,2,5,17,1.48145672119481,166039.4325802,166040.938084,0,2.62218390000635,4
315,1,1,9,20,1.3491442321706,166043.5603252,166044.9343683,0,1.53064550002455,8
316,1,1,1,16,1.86709942752442,166046.4652209,166048.3553994,0,1.32485579999047,3
317,1,2,8,21,1.97496937001393,166049.6803111,166051.6827047,0,2.35777439997764,7
318,1,2,8,18,1.65386898771133,166054.0406314,166055.7178989,0,2.96244149998529,6
319,1,2,4,21,1.83507651203592,166058.6804141,166060.5424027,0,1.63432770001236,4
320,1,2,2,2,1.35247612623666,166062.1769308,166063.5521649,0,2.06600739998976,2
321,1,2,1,7,1.3043247536387,166065.6182804,166066.9442075,0,1.39085460000206,1
322,1,1,5,4,1.40047682434559,166068.3351078,166069.760003,0,1.4007209999836,5
323,1,2,4,10,1.1433042633759,166071.1609439,166072.3291914,0,1.5111123000097,4
324,1,2,1,9,1.56592522776358,166073.8403504,166075.4310672,0,1.69739439999103,3
325,1,1,3,22,1.55232555233995,166077.128523,166078.7062616,0,1.87006539999857,3
326,1,1,1,2,1.82134350134262,166080.5763899,166082.4199565,0,1.19956209999509,1
327,1,2,4,2,1.52302349600654,166083.6196232,166085.166927,0,2.73765919997822,4
328,1,2,3,4,1.78382857336939,166087.9047755,166089.7135915,0,1.50293019998935,4
329,1,2,1,18,1.0045709044195,166091.2165968,166092.2486519,0,1.39192490000278,3
330,1,1,3,3,1.28278266752869,166093.6407997,166094.9460013,0,1.74246109998785,4
331,1,2,3,2,1.77928527622005,166096.6885082,166098.4904006,0,0.99075629998697,4
332,1,1,2,22,1.74672675183277,166099.4813174,166101.2550613,0,1.55338969998411,2
333,1,1,5,6,1.24693760750256,166102.8084996,166104.0789716,0,1.71419049997348,5
334,1,1,5,17,1.10937474738864,166105.7933361,166106.9266368,0,1.69790040000225,5
335,1,1,2,3,1.39488656717633,166108.6245836,166110.0394089,0,1.01698810001835,6
336,1,1,8,15,1.74246917146299,166111.0564436,166112.8244776,0,2.26396680000471,8
337,1,1,5,15,1.69626537745525,166115.0885119,166116.8125649,0,1.28458649999811,5
338,1,1,9,2,1.39740886111584,166118.0974088,166119.5195157,0,1.37676620000275,7
339,1,2,4,7,1.07342137806216,166120.8963667,166121.9908228,0,2.0015309000155,4
340,1,2,2,4,1.41168854942566,166123.9923998,166125.430164,0,1.23454450001009,4
341,1,1,8,9,1.22176063587651,166126.6647596,166127.9113499,0,1.27292940000189,7
342,1,1,2,13,1.29329827747175,166129.1843256,166130.5011318,0,1.64323260000674,4
343,1,1,2,11,1.83067819184085,166132.1444115,166134.0005984,0,1.49588190001668,2
344,1,2,9,15,1.71671392693094,166135.4965483,166137.2386368,0,2.58574959999532,7
345,1,1,4,16,1.8713719749442,166139.8244547,166141.7250417,0,1.29920979999588,4
346,1,1,8,18,1.91052767399594,166143.0243046,166144.956893,0,2.42758220000542,6
347,1,1,4,1,1.9079894307326,166147.3845214,166149.3150654,0,1.90121579999686,3
348,1,1,9,17,1.04494486789517,166151.2163297,166152.2844193,0,2.23590729999705,6
349,1,2,8,14,1.79302829588232,166154.5203759,166156.3402152,0,1.86808769998606,7
350,1,2,3,21,1.63680506266138,166158.2083558,166159.8637505,0,1.3857493000105,3
351,1,1,2,4,1.61455213206944,166161.2504054,166162.8899952,0,2.22320039998158,4
352,1,1,8,7,1.09300522248432,166165.1139687,166166.2306678,0,2.68175509999855,7
353,1,1,1,20,1.48081646567775,166168.9124713,166170.420613,0,2.14767720000236,1
354,1,2,6,7,1.10043685469472,166172.5683355,166173.6866336,0,1.60168079999858,6
355,1,2,8,13,1.7075218516828,166175.2883606,166177.0220929,0,1.34659949998604,6
356,1,2,5,10,1.97480950756667,166178.3690782,166180.3676831,0,1.66670240001986,5
357,1,1,2,19,1.11439526464484,166182.0344903,166183.1761218,0,1.09627569999429,4
358,1,2,6,3,1.41302741334413,166184.2724678,166185.7143538,0,2.4534140000178,6
359,1,2,3,9,1.01252564369068,166188.1678961,166189.2022389,0,1.3501144000038,4
360,1,1,7,22,1.8264517075753,166190.5523992,166192.4011752,0,1.91503169998759,6
361,1,2,3,1,1.71643906776921,166194.3163601,166196.0589481,0,2.00835650000954,4
362,1,1,6,1,1.53327199811347,166198.0676989,166199.6263751,0,2.23521159999655,5
363,1,1,2,17,1.0299636611983,166201.8616325,166202.9165298,0,1.49222420001752,3
364,1,2,3,19,1.69088478711269,166204.4088042,166206.1237776,0,2.16544769998291,4
365,1,1,1,4,1.98509041252662,166208.2895781,166210.2955926,0,1.76889519998804,3
366,1,2,8,9,1.88145584209254,166212.0645434,166213.9702518,0,1.24653810000746,7
367,1,1,4,12,1.01440280874222,166215.2168388,166216.253243,0,2.2042532999767,4
368,1,2,4,9,1.46959470410283,166218.4576007,166219.9507055,0,2.48237449998851,4
369,1,1,6,17,1.42132657780706,166222.4331466,166223.8787469,0,1.3697506999888,5
370,1,2,4,16,1.88635801234588,166225.2485664,166227.1605331,0,1.72818830001052,4
371,1,2,7,1,1.59185803782124,166228.8887959,166230.5022415,0,1.96251459998894,6
372,1,1,9,11,1.54594961377928,166232.4650045,166234.0329563,0,1.36040700000012,8
373,1,2,4,15,1.81781926520519,166235.3936745,166237.2365822,0,2.26860149999266,4
374,1,1,4,2,1.67049828134056,166239.506771,166241.202111,0,1.35821070001111,5
375,1,2,9,20,1.28207483774672,166242.5603704,166243.8665229,0,1.98263260000385,8
376,1,1,8,14,1.69532772079472,166245.8494625,166247.5717226,0,1.34078070000396,8
377,1,2,7,15,1.40178651214974,166248.9125754,166250.3358208,0,1.74493869999424,6
378,1,1,8,13,1.68894496179748,166252.0808398,166253.7957169,0,1.41259970000829,6
379,1,1,1,17,1.07691436238448,166255.20838,166256.3102097,0,1.45861760000116,3
380,1,2,8,15,1.79012467599242,166257.7693482,166259.5825118,0,2.16993249999359,7
381,1,2,1,2,1.46207980233907,166261.7525186,166263.241604,0,1.55881550000049,2
382,1,2,1,19,1.36252555883994,166264.800466,166266.1864065,0,2.12741300000926,3
383,1,1,5,20,1.9121288686397,166268.3141409,166270.2510982,0,2.90923119999934,4
384,1,1,4,9,1.62637131708,166273.160382,166274.8080212,0,1.602576699981,3
385,1,2,6,6,1.93129332993307,166276.4108552,166278.3696893,0,1.82264180001221,5
386,1,1,7,21,1.16049576248288,166280.1923776,166281.3751673,0,1.12961580001866,7
387,1,2,5,5,1.75683245026763,166282.5048629,166284.2867107,0,1.61770980001893,4
388,1,1,4,18,1.15886935896515,166285.9045083,166287.0882736,0,0.992073000001255,4
389,1,1,8,8,1.66724609040722,166288.0804019,166289.7697575,0,1.80657849999261,7
390,1,1,4,15,1.04221518785115,166291.5763897,166292.6394322,0,1.39311269999598,3
391,1,2,4,1,1.82255061913728,166294.0328489,166295.8789031,0,1.84183960000519,3
392,1,1,6,10,1.87407716044777,166297.7210628,166299.6171774,0,1.9317630000005,5
393,1,2,5,13,1.39924509824208,166301.5489875,166302.9764006,0,1.68781530001434,5
394,1,1,8,22,1.43094565649626,166304.6644192,166306.1161577,0,1.30286870000418,7
395,1,2,5,20,1.16004951917421,166307.4190756,166308.6010386,0,2.03998219998903,5
396,1,1,2,9,1.51003036556281,166310.6410918,166312.1807325,0,2.7095056999824,3
