ID,State,Position ID,Morph Step,Face Person,ITI,Trial_Onset,Stim_Onset,Stim_Offset,RT,Answer
1,1,1,9,7,1.72117389167183,348634.2896039,348636.032910733,0,1.56028326746309,9
2,1,1,8,11,1.27591728660917,348637.5963119,348638.893818726,0,1.24579307367094,7
3,1,2,5,22,1.76882020104839,348640.1404475,348641.937681461,0,1.63599853852065,3
4,1,1,6,9,1.79181340595932,348643.5741946,348645.380751177,0,1.59587272349745,3
5,1,1,3,22,1.9012437653149,348646.978846,348648.906989753,0,1.60752864734968,2
6,1,1,3,20,1.09475607358465,348650.516877,348651.634857615,0,0.882933284970932,1
7,1,2,1,13,1.87989143672495,348652.5180172,348654.429218177,0,1.19031672348501,1
8,1,1,2,14,1.28652585536401,348655.6196672,348656.924213319,0,1.11121948121581,1
9,1,1,8,20,1.20644658645986,348658.035561,348659.252852444,0,1.36196475615725,8
10,1,1,8,8,1.3988390778978,348660.6149732,348662.047217551,0,1.40762374852784,7
11,1,1,7,13,1.7167565253377,348663.455041,348665.190896353,0,1.4653424473363,4
12,1,2,3,14,1.12837932689256,348666.6563693,348667.818949354,0,1.22929974604631,3
13,1,1,4,15,1.7942511794133,348669.0484351,348670.879524853,0,1.56769254739629,3
14,1,2,6,22,1.91765495224819,348672.4473573,348674.389063455,0,1.3233761448646,4
15,1,1,7,4,1.60229231943182,348675.7125861,348677.333147943,0,1.90060775738675,8
16,1,1,6,6,1.28163130116074,348679.2340612,348680.543426758,0,1.97848014236661,4
17,1,1,5,16,1.99575905016576,348682.5220446,348684.552019743,0,1.32809065736365,3
18,1,1,7,16,1.45503154811525,348685.8802676,348687.362956739,0,1.22748936113203,8
19,1,1,9,20,1.82666365167387,348688.5906186,348690.440102556,0,1.51433354354231,9
20,1,2,5,18,1.44902896594687,348691.9545768,348693.434074355,0,1.75160174490884,3
21,1,1,4,1,1.62975844243136,348695.1858458,348696.843876961,0,1.3612533385749,3
22,1,2,1,21,1.38366426097841,348698.2052875,348699.621620358,0,1.475603142404,2
23,1,1,1,18,1.43757389998357,348701.0973489,348702.549068756,0,1.22089804359712,1
24,1,2,7,21,1.87201545894533,348703.7700968,348705.659473946,0,1.25601415365236,8
25,1,2,6,14,1.15471799698151,348706.9156718,348708.087931458,0,1.47202084236778,5
26,1,2,8,19,1.96116352811198,348709.5601053,348711.547621861,0,1.44198953855084,7
27,1,2,1,2,1.86589083083406,348712.9897541,348714.874330846,0,1.71977235365193,2
28,1,2,6,17,1.43265072692348,348716.5942736,348718.05120505,0,2.12710444984259,5
29,1,1,7,3,1.05342966039755,348720.1785078,348721.261411554,0,1.72030744602671,6
30,1,2,6,8,1.08729299611016,348722.9819121,348724.089057559,0,2.21266354108229,5
31,1,2,4,17,1.58653158078964,348726.3018664,348727.914690855,0,1.27490804484114,4
32,1,1,9,17,1.08497183467329,348729.1897202,348730.293259344,0,1.32289725617738,8
33,1,2,9,22,1.33655382294431,348731.6162874,348732.971184861,0,1.79991403856548,9
34,1,2,4,15,1.56308989881518,348734.7712253,348736.364357565,0,1.31904773483984,3
35,1,2,4,10,1.05338890013957,348737.6835927,348738.759549544,0,1.56180205615237,4
36,1,1,5,11,1.71863764667184,348740.3214936,348742.069571156,0,1.86692884360673,5
37,1,1,8,7,1.67867878853456,348743.9366374,348745.645691449,0,1.33762945106719,8
38,1,1,3,2,1.71523562836544,348746.9834564,348748.722838553,0,1.59852384735132,4
39,1,2,6,4,1.56305410489308,348750.3215259,348751.916399654,0,2.69376014603768,5
40,1,1,2,13,1.48269841839048,348754.6102984,348756.124602156,0,1.51393484359141,4
41,1,2,2,3,1.76883813149237,348757.6387207,348759.434628618,0,2.15512548247352,3
42,1,2,1,16,1.08463323254886,348761.5898908,348762.694717958,0,1.22635514236754,2
43,1,1,4,14,1.04255124187738,348763.9212019,348764.973483118,0,2.90595568239223,4
44,1,2,9,12,1.22949928074222,348767.8795592,348769.131773159,0,1.22017024108209,8
45,1,2,8,7,1.10693148870504,348770.3520664,348771.477101444,0,2.2708515561535,9
46,1,1,2,7,1.60991290758428,348773.7481313,348775.369165694,0,1.55769750563195,3
47,1,2,6,12,1.43320015252178,348776.9270184,348778.37983275,0,1.28979104984319,4
48,1,1,4,21,1.73000122814722,348779.6697498,348781.423730113,0,1.31748428742867,4
49,1,1,6,2,1.84787125341811,348782.7413896,348784.617283951,0,2.0406389485579,5
50,1,2,4,14,1.06683439320403,348786.6580646,348787.744318653,0,1.55806354735978,4
51,1,1,7,20,1.68548533889939,348789.3025362,348791.004430451,0,1.37699564854847,7
52,1,2,3,9,1.82278559785464,348792.3815774,348794.214653113,0,1.43862078740494,2
53,1,1,9,2,1.34681122700066,348795.6534025,348797.025646046,0,1.59158075362211,9
54,1,2,4,18,1.31204372539161,348798.617396,348799.953137163,0,3.21736423729453,3
55,1,1,4,6,1.12811082936239,348803.1706918,348804.32762335,0,2.9229261498549,4
56,1,1,6,19,1.32281006583518,348807.2507013,348808.585714661,0,1.64558103861054,3
57,1,2,8,6,1.68699969592742,348810.231489,348811.945642841,0,1.42733445868362,7
58,1,1,2,19,1.73568521874723,348813.3731159,348815.139205544,0,1.45888525614282,3
59,1,2,7,7,1.94847189279069,348816.5983413,348818.565637459,0,1.91696874104673,7
60,1,2,7,19,1.44177930304276,348820.4827773,348821.94216569,0,1.4635454096715,7
61,1,2,3,18,1.51937701042486,348823.4058397,348824.952788653,0,1.37706184736453,3
62,1,2,8,11,1.62833946937736,348826.3300077,348827.980041155,0,1.18099184485618,8
63,1,2,9,19,1.40822023510855,348829.161286,348830.591443664,0,1.4916091360501,8
64,1,2,1,12,1.34012832057089,348832.0832261,348833.435722443,0,1.30070235737367,1
65,1,2,9,20,1.39605286411648,348834.7366257,348836.163562548,0,1.32411115232389,9
66,1,2,1,17,1.49829881112801,348837.4877998,348839.007845158,0,1.21578324236907,1
67,1,1,5,5,1.91040587093913,348840.2237476,348842.168147061,0,2.06156453856966,4
68,1,1,8,18,1.10883863707595,348844.2298433,348845.361711494,0,1.52381850604434,7
69,1,2,5,17,1.5216000306634,348846.885714,348848.422245941,0,1.55269035865786,3
70,1,1,6,7,1.18278610051817,348849.9750801,348851.183353349,0,1.58823585108621,7
71,1,2,4,8,1.81885951574079,348852.7717352,348854.60979684,0,1.26865165989147,5
72,1,2,5,2,1.77721909908437,348855.878582,348857.68692236,0,1.46387523977319,4
73,1,1,9,3,1.5560873984054,348859.1509951,348860.730806146,0,1.43674155365443,8
74,1,2,7,5,1.47078690983122,348862.1676782,348863.658253551,0,1.49941794859478,7
75,1,1,3,11,1.43766977141824,348865.1578171,348866.618979243,0,1.80351105739828,2
76,1,2,8,16,1.37054860718282,348868.4226836,348869.812553059,0,1.93404514109716,8
77,1,1,2,22,1.13283316109669,348871.7467989,348872.906314458,0,1.77523354237201,1
78,1,1,7,14,1.297972312434,348874.6818034,348876.000075759,0,1.20514924108284,8
79,1,1,9,21,1.30976019993404,348877.2054146,348878.528299749,0,1.19828015082749,9
80,1,1,3,17,1.23783643063748,348879.7267592,348880.990053044,0,1.1550267561106,1
81,1,1,5,10,1.27218957327894,348882.1452304,348883.435134039,0,1.49035536113661,4
82,1,1,9,19,1.5778058041843,348884.9256419,348886.528893559,0,1.34693904104643,7
83,1,2,7,8,1.03467360768124,348887.8759935,348888.940716354,0,1.45394084608415,6
84,1,2,1,14,1.39677722024998,348890.3947813,348891.818253455,0,1.63875344482949,2
85,1,2,8,3,1.58223730568578,348893.457126,348895.061729458,0,1.75697064236738,7
86,1,2,2,5,1.59721653109616,348896.8188774,348898.438269148,0,2.38452015235089,3
87,1,1,8,13,1.3619430051468,348900.8229454,348902.214006056,0,1.72932704357663,4
88,1,1,4,8,1.90845896432776,348903.9435159,348905.873288897,0,1.51727660343749,5
89,3,1,3,7,1.67823405354315,348907.3907381,348909.10014276,0,NaN,None
90,1,1,5,2,1.6981993847175,348913.1001894,348914.821962959,0,1.6759052411071,4
91,1,2,5,15,1.2685776911286,348916.4980229,348917.782683754,0,1.62129254604224,3
92,1,2,6,7,1.48679534082897,348919.4041093,348920.909718856,0,1.71291454357561,6
93,1,1,5,20,1.51753588853755,348922.62279,348924.16982766,0,1.52506893977989,5
94,1,1,4,22,1.25239942397969,348925.695035,348926.964202259,0,1.55068114108872,3
95,1,1,4,13,1.83709198182544,348928.5150394,348930.374023741,0,1.75001165864524,4
96,1,2,5,13,1.64625815712874,348932.1241935,348933.800474051,0,1.37957084854133,4
97,1,1,2,18,1.08934097394789,348935.1802209,348936.295440545,0,1.54096465487964,2
98,1,1,2,9,1.83151032320242,348937.8365716,348939.688619759,0,1.31947264104383,1
99,1,2,1,22,1.46959499843918,348941.0082728,348942.499612961,0,1.29331323859515,1
100,1,2,4,6,1.95433616118134,348943.7930658,348945.759722746,0,1.98294685361907,4
101,1,1,5,1,1.04118020572234,348947.7428039,348948.803610816,0,2.16688578372123,4
102,1,1,5,22,1.1159580595458,348950.9706514,348952.113607848,0,1.2430529523408,3
103,1,1,1,14,1.04663986744631,348953.3568575,348954.425622559,0,1.09761144110234,1
104,1,2,1,19,1.48088896846299,348955.5233817,348957.037038558,0,2.0262102423585,2
105,1,2,2,18,1.0134533955061,348959.0634421,348960.097548656,0,1.23648254357977,2
106,1,1,5,9,1.49707049957585,348961.3341719,348962.858653056,0,1.33713694359176,4
107,1,2,1,7,1.0270494997863,348964.1959422,348965.237175247,0,1.50456245330861,1
108,1,1,8,22,1.12277503728933,348966.7419238,348967.881887711,0,1.33097948873183,9
109,1,2,7,2,1.1789269775469,348969.2132744,348970.426756458,0,1.35515864234185,8
110,1,2,7,9,1.08173443064092,348971.7820859,348972.888479756,0,1.33411214355147,8
111,1,2,7,17,1.37861642066395,348974.22273,348975.632947965,0,1.39703243476106,8
112,1,2,2,21,1.17641017785329,348977.0301285,348978.227709635,0,1.56944796460448,2
113,1,1,8,2,1.99885294611784,348979.7972901,348981.820507855,0,1.39226424484514,8
114,1,2,5,16,1.60961926599784,348983.2129099,348984.831062378,0,1.55065562191885,4
115,1,2,1,1,1.44963767177331,348986.381837,348987.85836555,0,1.39652464987012,2
116,1,1,6,18,1.2648332794467,348989.2550816,348990.552932955,0,1.65906844486017,5
117,1,1,3,12,1.63371383107575,348992.212166,348993.862963616,0,1.77865108376136,3
118,1,2,3,17,1.55666233501024,348995.6418062,348997.222856341,0,1.21268805867294,2
119,1,1,1,11,1.24977680118642,348998.4356899,348999.717825855,0,1.19138924486469,1
120,1,1,1,20,1.81356395283814,349000.9093574,349002.745068061,0,1.04727103858022,1
121,1,2,3,21,1.27654733808662,349003.7925068,349005.090285543,0,1.29642045684159,4
122,1,1,2,10,1.49185685544996,349006.3868409,349007.901370731,0,1.64029266865691,4
123,1,1,3,21,1.67047676582698,349009.5418711,349011.228006251,0,1.3434677485493,4
124,1,1,4,2,1.19206889789019,349012.5716414,349013.772833767,0,2.07817213324597,4
125,1,1,9,5,1.76663318903982,349015.851193,349017.64840956,0,1.49934783979552,8
126,1,1,6,12,1.84300951752475,349019.1479435,349021.02496096,0,1.47529733978445,6
127,1,2,4,12,1.31532311402329,349022.5005419,349023.835972151,0,1.77334384858841,6
128,1,2,2,14,1.19441079416439,349025.6094464,349026.81328724,0,1.85278335958719,2
129,1,2,2,7,1.59921432540924,349028.6662204,349030.289653355,0,1.43008154485142,2
130,1,2,7,13,1.03324346957101,349031.7198746,349032.784629654,0,1.50123934610747,5
131,1,2,5,1,1.35754740436359,349034.2860109,349035.662229434,0,2.58174676616909,2
132,1,1,3,16,1.99621579915175,349038.2441084,349040.269567753,0,2.01972614735132,2
133,1,2,3,2,1.15814856353492,349165.4787405,349166.648619364,0,1.86420693609398,4
134,1,2,9,11,1.33029007319779,349168.5156111,349169.875467455,0,1.31645374489017,8
135,1,1,2,3,1.2692451912351,349171.1920408,349172.48688325,0,1.36658244987484,3
136,1,2,7,6,1.77986740430518,349173.8536487,349175.663825459,0,1.37228884111391,7
137,1,2,8,4,1.85146018134317,349177.0362384,349178.907286459,0,1.53682084108004,8
138,1,1,5,17,1.7549352171304,349180.4442642,349182.21730304,0,1.32934285985539,4
139,1,1,9,6,1.3221364191588,349183.5467875,349184.895242543,0,1.33763015741715,8
140,1,1,7,11,1.03947660534511,349186.2330127,349187.290466036,0,1.17874896363355,7
141,1,1,3,4,1.64372012532266,349188.4693624,349190.151342259,0,1.43670514109544,4
142,1,2,4,21,1.92926222782522,349191.5882361,349193.544507654,0,1.36498224607203,4
143,1,1,6,3,1.45682540735616,349194.9096083,349196.388789236,0,1.77411436365219,5
144,1,1,1,13,1.45170852525128,349198.163091,349199.632258456,0,1.62048964359565,4
145,1,1,7,2,1.60977411119134,349201.2529324,349202.875685318,0,1.84196078183595,6
146,1,2,5,6,1.17432711254347,349204.7178329,349205.902983155,0,1.30032524483977,5
147,1,2,6,10,1.18555902381875,349207.2034482,349208.414592759,0,1.36997864110162,4
148,1,2,7,10,1.45659612450145,349209.7847931,349211.258866146,0,2.58815515361493,5
149,1,1,8,10,1.54662179692945,349213.847157,349215.417183351,0,1.53407354856608,6
150,1,2,3,1,1.17568132693325,349216.9514092,349218.144996219,0,1.36525378085207,3
151,1,2,6,21,1.87001353909909,349219.5104015,349221.405123344,0,1.62129725614795,4
152,1,2,2,17,1.55660179784829,349223.0265776,349224.598709807,0,1.29583209252451,2
153,1,1,9,15,1.37642003509379,349225.8946596,349227.293223818,0,1.43365088186692,9
154,1,2,2,12,1.47760867342479,349228.727085,349230.237361049,0,1.34020645107375,2
155,1,2,7,12,1.99055912996104,349231.5777506,349233.580683841,0,1.42256825865479,6
156,1,2,6,15,1.90878197419754,349235.0034387,349236.94053644,0,2.63142415985931,6
157,1,1,8,16,1.26041590405877,349239.5721057,349240.865970241,0,1.28471615863964,8
158,1,1,2,16,1.51171544535258,349242.1508284,349243.693613658,0,2.1427030423074,2
159,1,1,7,12,1.55662704456178,349245.8364679,349247.402790505,0,1.33875959471334,7
160,1,2,9,13,1.9456816948708,349248.7416685,349250.712818559,0,1.61343114107149,7
161,1,1,1,15,1.74150050074363,349252.3263896,349254.089349304,0,1.43983919598395,2
162,1,2,4,5,1.81784138009989,349255.5293101,349257.366098451,0,1.53620724857319,4
163,1,1,8,4,1.93052840635944,349258.902463,349260.859066564,0,1.26888293604134,7
164,1,1,7,10,1.42340776254365,349262.1281023,349263.57028584,0,1.5815215598559,7
165,1,2,6,20,1.28635826095364,349265.15198,349266.464451661,0,1.81627963855863,5
166,1,2,8,21,1.65297195144028,349268.2808821,349269.957428759,0,1.38971094111912,8
167,1,1,6,21,1.69503322280561,349271.3473271,349273.067844046,0,1.91670155368047,4
168,1,1,5,19,1.09071035201312,349274.9846642,349276.095079845,0,1.91807255480671,3
169,1,2,7,14,1.22963331042682,349278.0133377,349279.272024059,0,1.38183284108527,8
170,1,1,8,17,1.75315081214528,349280.654102,349282.432334956,0,1.43345584359486,8
171,1,2,3,7,1.39233491987059,349283.8659482,349285.2765953,0,1.30847699969308,2
172,1,2,4,2,1.81438063000387,349286.5852511,349288.420286958,0,1.59024104237324,4
173,1,2,2,10,1.15280251120687,349290.0106879,349291.181396558,0,1.57528774236562,3
174,1,1,2,2,1.29603126855365,349292.7568463,349294.07557886,0,1.47231903980719,2
175,1,2,1,15,1.13556961031784,349295.548036,349296.703642459,0,1.13713014102541,1
176,1,1,2,1,1.96477248631036,349297.8410147,349299.830665256,0,1.26851654355414,1
177,1,1,2,11,1.45778324608256,349301.0993086,349302.575155914,0,1.3704618862248,1
178,1,2,3,5,1.74911096561267,349303.945836,349305.718811451,0,1.49790384859079,4
179,1,1,9,10,1.28696542809521,349307.2169148,349308.529827761,0,1.43118363857502,8
180,1,2,2,22,1.96248070378492,349309.9611501,349311.956268056,0,1.49809284356888,2
181,1,1,1,7,1.66342179849128,349313.4544984,349315.149839343,0,1.6153173573548,2
182,1,1,1,9,1.97930785666997,349316.7653079,349318.775879459,0,1.20528514106991,1
183,1,2,9,4,1.70492359483292,349319.9812925,349321.703325939,0,1.31668026116677,9
184,1,2,2,4,1.85494470944774,349323.0201562,349324.896905545,0,2.50939335487783,3
185,1,1,3,5,1.78405909730212,349327.4064379,349329.221527239,0,1.84297326114029,4
186,1,2,9,6,1.08064515900585,349331.0646626,349332.165609945,0,1.34677725489018,9
187,1,1,6,16,1.91638731257971,349333.5125505,349335.458990355,0,1.82470934488811,5
188,1,1,1,19,1.92456909649851,349337.2838594,349339.218089428,0,1.92757777241059,2
189,1,1,6,15,1.82590099730362,349341.1458391,349343.010452056,0,2.49677624355536,6
190,1,1,1,17,1.39181077446195,349345.5073574,349346.919255919,0,1.50637048122007,1
191,1,1,1,2,1.57750511295576,349348.4257784,349350.029657563,0,1.59239013725892,2
192,1,2,3,13,1.4238887859011,349351.6221742,349353.056906045,0,2.61474825488403,4
193,1,1,3,19,1.70167764549706,349355.6717982,349357.398169456,0,1.57142384361941,4
194,1,1,5,15,1.86880460124636,349358.9697564,349360.857872949,0,1.45993925107177,4
195,1,1,7,18,1.39086956317811,349362.3179396,349363.71878553,0,2.09468196990201,5
196,1,2,9,16,1.91866571777003,349365.8135865,349367.76064536,0,1.45960683975136,8
197,1,1,9,14,1.391946214985,349369.2204401,349370.621553697,0,1.34948760340922,9
198,1,2,7,3,1.30043689583743,349371.9711697,349373.299498856,0,1.37750784360105,7
199,1,2,8,12,1.0480159283207,349374.6771545,349375.74458805,0,1.31802124989918,8
200,1,1,6,11,1.36891770689312,349377.0627423,349378.455798548,0,1.63153165235417,6
201,1,1,8,5,1.34692596503918,349380.087485,349381.466407151,0,1.34945454855915,8
202,1,2,8,15,1.79436769457554,349382.8160008,349384.643411846,0,1.24579705361975,8
203,1,2,8,5,1.82329986745718,349385.8893748,349387.737160477,0,1.24474232346984,8
204,1,1,8,1,1.97576675797293,349388.9821558,349390.980598758,0,1.61216114240233,7
205,1,2,8,18,1.68862911205265,349392.5928903,349394.307236745,0,1.90678595483769,7
206,1,1,7,8,1.7478193896024,349396.2142108,349397.98317796,0,2.08909423981095,6
207,1,2,9,2,1.73538172946832,349400.0724223,349401.825446055,0,1.70924274483696,8
208,1,2,4,9,1.64758171017003,349403.5348457,349405.201983555,0,1.41285534482449,3
209,1,2,6,6,1.01798720338327,349406.6150121,349407.663699556,0,1.22484724357491,4
210,1,2,1,18,1.59397629292942,349408.8887149,349410.507994521,0,1.34439477871638,1
211,1,2,8,2,1.65511068691964,349411.852557,349413.518590648,0,1.26519745239057,7
212,1,2,9,9,1.94351718448224,349414.7839351,349416.762062254,0,1.41229344607564,8
213,1,1,4,17,1.13087089079586,349418.1744861,349419.340220158,0,1.43473064235877,3
214,1,1,2,8,1.7359265013852,349420.7751098,349422.53378716,0,1.11594843980856,2
215,1,2,9,14,1.77411185478946,349423.649926,349425.444593054,0,1.34811944613466,8
216,1,1,4,20,1.27104184570823,349426.7929205,349428.08928555,0,2.22750164987519,4
217,1,2,7,16,1.57943459098399,349430.3169839,349431.931535743,0,1.70499225734966,7
218,1,2,6,2,1.49042419596084,349433.6366751,349435.141746163,0,1.28779543726705,6
219,1,2,3,10,1.97631025553274,349436.4296577,349438.435115858,0,1.34668164234608,3
220,1,1,8,12,1.41200288025669,349439.7819364,349441.229496948,0,1.46521425235551,8
221,1,2,1,11,1.11203227721664,349442.6949146,349443.840903758,0,1.3797442423529,2
222,1,2,5,5,1.07382030343593,349445.220811,349446.319263935,0,1.54591826489195,4
223,1,1,3,15,1.64414363683944,349447.8653047,349449.546092463,0,1.49861253728159,3
224,1,2,7,15,1.50260739855676,349451.0449483,349452.573343945,0,1.61118945485214,7
225,1,1,4,12,1.48769218088519,349454.1846859,349455.700382554,0,1.45988984609721,5
226,1,2,7,11,1.00937179076902,349457.1604341,349458.178708028,0,1.53731317212805,7
227,1,2,8,17,1.61584049563441,349459.7161736,349461.35567515,0,1.676903049869,7
228,1,1,8,9,1.61786178490926,349463.0327333,349464.665678265,0,1.59566863480723,8
229,1,2,2,20,1.51788228256588,349466.2614879,349467.809361746,0,1.34896885365015,1
230,1,1,5,8,1.90554391704364,349469.1584999,349471.086093346,0,1.29041225364199,5
231,1,2,4,4,1.15389378445867,349472.3766246,349473.547798763,0,1.86803953733761,4
232,1,2,5,4,1.53601173586604,349475.4159852,349476.974238256,0,1.45449774357257,4
233,1,2,5,11,1.24143667968371,349478.4288851,349479.68546023,0,1.83373506995849,4
234,1,1,1,21,1.10558745173262,349481.5193464,349482.646164251,0,1.38023834855994,2
235,1,1,4,4,1.30525125413962,349484.0265579,349485.357398751,0,1.62835574860219,5
236,1,2,1,10,1.76307313543408,349486.9859085,349488.783809458,0,1.92860964231659,3
237,1,1,1,22,1.09375675079353,349490.7126194,349491.844321758,0,1.22905964235542,1
238,1,2,4,19,1.02740626305253,349493.0735266,349494.12303905,0,1.56066164956428,4
239,1,1,1,12,1.86968434861957,349495.6839148,349497.566158734,0,1.80770306615159,1
240,1,2,1,5,1.14441829157899,349499.3739801,349500.526814469,0,1.20144413074013,2
241,1,1,2,17,1.87349281845321,349501.728491,349503.620640445,0,1.0809651548625,1
242,1,1,8,14,1.22415524158681,349504.7017764,349505.949288243,0,1.26523275737418,8
243,1,1,7,17,1.39244410765188,349507.2146796,349508.627226659,0,1.36002294108039,7
244,1,1,3,1,1.48709845720369,349509.9874747,349511.488140451,0,1.69399514858378,3
245,1,2,3,15,1.56334122666306,349513.1822761,349514.781508663,0,1.72304113733117,3
246,1,1,5,18,1.36418226841618,349516.504784,349517.891922558,0,1.42218464234611,4
247,1,2,5,20,1.29091348286834,349519.3142836,349520.619755756,0,1.72823834361043,5
248,1,1,6,4,1.65336875790681,349522.3481364,349524.029563964,0,1.93693593604257,5
249,1,2,6,1,1.97540881323954,349525.9666568,349527.954965859,0,1.21582874079468,4
250,1,1,9,8,1.73450920994833,349529.1710442,349530.932354055,0,1.64023174485192,8
251,1,2,8,1,1.42503789688811,349532.5727222,349534.009496426,0,1.4209472736693,7
252,1,1,6,1,1.7530206390027,349535.4305749,349537.20306036,0,1.93291263980791,4
253,1,2,1,4,1.44110740565001,349539.136119,349540.596205152,0,1.45390884828521,2
254,1,2,3,4,1.34155325712656,349542.0502512,349543.407243054,0,1.64640814613085,3
255,1,1,6,10,1.95187109449993,349545.0538107,349547.033300245,0,1.30470155488001,4
256,1,1,7,15,1.92285847926402,349548.3381537,349550.276821744,0,1.34263045614352,8
257,1,2,1,20,1.88530464055814,349551.6196325,349553.520234448,0,1.22337545239134,1
258,1,1,8,3,1.74598647629888,349554.743755,349556.514201959,0,1.43880634108791,7
259,1,2,9,18,1.23035837808857,349557.9532072,349559.208781655,0,1.71252864488633,7
260,1,2,3,20,1.65437026913167,349560.9214898,349562.601970946,0,1.6710405536578,2
261,1,1,5,12,1.04398305402221,349564.2731465,349565.329745011,0,2.26053278933978,4
262,1,2,5,12,1.19125653857764,349567.5904218,349568.806201513,0,1.14424188743578,4
263,1,1,8,21,1.48083318283444,349569.950582,349571.450828255,0,1.31462044484215,8
264,1,1,4,11,1.33094745182943,349572.7655767,349574.128786458,0,2.26340034237364,4
265,1,1,7,5,1.08181583827357,349698.2377955,349699.343506858,0,1.59265264234273,7
266,1,1,4,10,1.1428114616909,349700.9363753,349702.087959824,0,1.1427046758472,4
267,1,2,6,16,1.99309385174104,349703.2308256,349705.231602513,0,1.57153688691324,4
268,1,1,2,6,1.28486924262098,349706.8032693,349708.109199058,0,1.07203384238528,3
269,1,1,3,18,1.67358372381486,349709.1813702,349710.870314543,0,1.16759845736669,2
270,1,2,1,9,1.72499024210323,349712.0380794,349713.781114945,0,1.418760554865,1
271,1,2,3,6,1.12662654079632,349715.2000292,349716.342607544,0,1.08736515580676,4
272,1,2,7,20,1.11505332336345,349717.430108,349718.571480449,0,1.32601495104609,7
273,1,1,7,6,1.49474811469676,349719.8976462,349721.415764156,0,2.29468134354101,7
274,1,1,4,16,1.08228272229975,349723.7105748,349724.825556156,0,1.12170514359605,4
275,1,2,3,19,1.78483130514826,349725.9473988,349727.75308814,0,1.25127165985759,3
276,1,2,8,22,1.03980541719416,349729.0045418,349730.065040616,0,1.35542298376095,8
277,1,1,7,22,1.12948808957714,349731.420632,349732.576630959,0,3.24615034105955,7
278,1,2,9,10,1.49743311445155,349735.8229533,349737.350372554,0,2.16403094609268,7
279,1,2,4,20,1.2611119153818,349739.5145559,349740.810063555,0,2.68185104487929,3
280,1,1,5,14,1.71166760520473,349743.4920763,349745.234509558,0,1.52942074235762,4
281,1,1,8,19,1.04407852766961,349746.7641023,349747.845906258,0,1.54652374237776,7
282,1,1,2,21,1.87328025880426,349749.3926274,349751.28906613,0,1.79258556995774,2
283,1,1,6,17,1.71785425487396,349753.0817784,349754.815231748,0,1.52989955234807,5
284,1,1,5,6,1.00358133312182,349756.3452575,349757.376736856,0,1.46826074359706,3
285,1,1,3,8,1.4503409460455,349758.8451195,349760.320808661,0,1.18540593859507,2
286,1,1,2,5,1.08047712444787,349761.5063708,349762.616200048,0,1.37219145236304,2
287,1,2,4,7,1.3463246978121,349763.9885604,349765.36067866,0,1.84047483978793,5
288,1,2,9,5,1.15498079404385,349767.2012821,349768.371284653,0,1.2155926473788,7
289,1,2,7,1,1.84171411383378,349769.5870034,349771.448388174,0,1.74326332571218,7
290,1,2,6,3,1.42799297964572,349773.1917849,349774.642008344,0,1.58930025610607,7
291,1,2,8,13,1.97197905977096,349776.2314352,349778.218139345,0,1.80676525487797,6
292,1,1,4,18,1.37120432240512,349780.0250338,349781.411713551,0,1.54260444856482,4
293,1,2,7,4,1.27786628755779,349782.9544676,349784.255984358,0,1.61371284240158,7
294,1,2,2,13,1.34383962236545,349785.8698453,349787.233284808,0,2.08778639190132,4
295,1,2,9,1,1.57100924096943,349789.3212635,349790.909273351,0,1.78373474854743,8
296,1,2,2,19,1.77951636799434,349792.6932115,349794.502105946,0,1.2867613536655,3
297,1,2,9,15,1.19773593318693,349795.7890488,349797.013660748,0,1.24022075237008,8
298,1,1,4,3,1.2162307990905,349798.2540272,349799.49199686,0,1.90739393979311,3
299,1,2,7,18,1.4931113340695,349801.3995239,349802.901792614,0,1.6798795859213,6
300,1,1,9,22,1.87243199805314,349804.5818286,349806.477947845,0,1.53287045488833,8
301,1,2,2,11,1.05503717176362,349808.0109548,349809.089358243,0,1.47183775738813,2
302,1,1,2,12,1.8076658842638,349810.5613533,349812.382714809,0,1.76780409092316,2
303,1,2,9,17,1.9580346284363,349814.1506634,349816.125190705,0,1.46070819470333,8
304,1,1,5,3,1.83894132331219,349817.5860749,349819.435217124,0,1.52514027617872,4
305,1,1,5,13,1.16978892945357,349820.9604784,349822.146425644,0,1.6329250560957,4
306,1,1,5,21,1.06914897228678,349823.7795356,349824.874264156,0,2.07799854356563,4
307,1,2,3,12,1.14917685837238,349826.9523891,349828.134367361,0,1.19113143859431,3
308,1,2,5,10,1.30673815386039,349829.3256451,349830.645992534,0,1.88542256614892,4
309,1,2,8,8,1.00971060251401,349832.5315505,349833.556771807,0,1.64912779344013,8
310,1,1,9,4,1.49335322981164,349835.2060301,349836.717048207,0,1.41844959318405,8
311,1,1,3,14,1.03263184361401,349838.1356308,349839.195457058,0,1.92199664236978,3
312,1,1,4,7,1.03591054488579,349841.1176123,349842.17279784,0,1.66687465982977,4
313,1,2,2,9,1.92388157310642,349843.8398571,349845.782195164,0,1.68001463607652,1
314,1,2,8,10,1.01816241240932,349847.4623319,349848.510047553,0,1.42242954735411,7
315,1,2,5,8,1.92018635061158,349849.9327674,349851.86996384,0,2.47185965988319,4
316,1,2,6,11,1.06347520866776,349854.3419658,349855.429453258,0,1.86645564233186,6
317,1,1,6,13,1.09261309344096,349857.2960709,349858.406808152,0,2.07125414832262,4
318,1,1,2,20,1.69540609723023,349860.4782156,349862.199171038,0,1.15485926234396,1
319,1,2,6,9,1.39067379583141,349863.354199,349864.760705231,0,1.64904116868274,4
320,1,2,3,22,1.22142239779083,349866.409908,349867.654873344,0,1.61125135613838,2
321,1,2,2,16,1.43816216695533,349869.2662561,349870.73200984,0,1.37394985987339,3
322,1,1,3,13,1.13010280902497,349872.10608,349873.260238661,0,1.35338353854604,4
323,1,2,9,7,1.09527091607761,349874.6137416,349875.738596756,0,1.33070494356798,8
324,1,1,3,10,1.47795432626702,349877.0694406,349878.582898313,0,1.51567538746167,4
325,1,1,1,10,1.2611688397268,349880.0987341,349881.393878456,0,1.42518834356451,2
326,1,2,4,16,1.74429667380118,349882.8192486,349884.587446061,0,1.22058533859672,4
327,1,1,5,4,1.99046068901998,349885.8081675,349887.814291759,0,1.55951644107699,4
328,1,2,5,9,1.36975864685622,349889.3739344,349890.758369545,0,1.63648765481776,3
329,1,2,4,13,1.59359964940583,349892.3950599,349894.018485555,0,1.11084104486508,4
330,1,1,7,21,1.12922928350855,349895.1294978,349896.280600846,0,1.37211095367093,8
331,1,2,2,2,1.96811537625277,349897.6528366,349899.640502453,0,2.34809604735347,2
332,1,1,3,9,1.5656585455238,349901.9887313,349903.582568146,0,1.29835025366629,2
333,1,1,3,6,1.47935137698226,349904.8810472,349906.393579546,0,1.33380255365046,4
334,1,2,2,1,1.63204810258844,349907.7275039,349909.387560259,0,1.48704274109332,3
335,1,1,4,19,1.39422995876058,349910.8751363,349912.298369146,0,1.54938405362191,3
336,1,1,9,11,1.24009746468713,349913.8478889,349915.109374448,0,1.32713995233644,8
337,1,1,6,22,1.40598501028601,349916.436718,349917.853860048,0,1.61476535233669,4
338,1,2,8,14,1.01500443637698,349919.4688192,349920.515162455,0,1.36762614484178,8
339,1,1,9,12,1.93883133004082,349921.8829408,349923.841811646,0,1.53172905364772,9
340,1,2,8,9,1.54966578921888,349925.3737021,349926.952215648,0,1.72197005240014,8
341,1,1,6,20,1.76168751633181,349928.6743531,349930.461813759,0,2.4927888410748,4
342,1,1,7,9,1.02664099370893,349932.9547927,349934.004677283,0,1.46675441722618,7
343,1,1,1,4,1.06842595365697,349935.4715769,349936.566199258,0,1.91962994239293,4
344,1,2,2,6,1.60060436649331,349938.4860171,349940.109086249,0,1.17276545107597,4
345,1,1,7,19,1.81973587190134,349941.2820298,349943.11968326,0,2.37862113979645,5
346,1,2,5,3,1.95452448047466,349945.4984945,349947.477586358,0,1.62320254236693,4
347,1,1,1,5,1.25563781652652,349949.1009596,349950.371776016,0,1.27772998367436,2
348,1,2,2,15,1.22844928545761,349951.6496737,349952.900082144,0,1.30203615617938,1
349,1,2,4,1,1.62457316845522,349954.2022975,349955.844076299,0,1.20541500096442,4
350,1,1,2,15,1.92196748811639,349957.049673,349958.987763725,0,1.28655507497024,1
351,1,2,5,21,1.30258360063821,349960.2744416,349961.599174844,0,1.30397955613444,4
352,1,1,4,9,1.73231517846678,349962.9033537,349964.659699443,0,1.57783455739263,3
353,1,2,4,3,1.61472315898947,349966.2376837,349967.886516058,0,1.29117424233118,4
354,1,2,1,6,1.47993505108247,349969.1778579,349970.680962453,0,2.54483254731167,3
355,1,1,1,3,1.01742883005252,349973.225947,349974.273675655,0,1.69701314484701,1
356,1,2,6,19,1.18251086538132,349975.9708428,349977.184474959,0,1.39576574106468,4
357,1,1,6,8,1.40639370814996,349978.5804102,349980.012128639,0,1.66232056112494,6
358,1,1,4,5,1.12724590767356,349981.6745845,349982.823093058,0,2.61261594202369,5
359,1,2,2,8,1.07747542674869,349985.435849,349986.532305069,0,1.45930623071035,2
360,1,1,8,15,1.94460459493219,349987.991745,349989.958783659,0,1.41630784107838,9
361,1,1,2,4,1.82062363730481,349991.3752377,349993.218883243,0,1.5391969573684,3
362,1,1,9,9,1.72824550623961,349994.7582249,349996.51227145,0,1.39673654985381,8
363,1,2,3,3,1.4872193266506,349997.9091266,349999.423085139,0,2.16389796114527,3
364,1,1,1,8,1.97319993043089,350001.5871497,350003.581371645,0,1.28632335487055,2
365,1,1,1,16,1.54103087166435,350004.8678789,350006.42562763,0,1.3491306695505,2
366,1,2,5,19,1.91888929218361,350007.7749452,350009.71902575,0,1.30588944989722,4
367,1,2,3,16,1.18949831169439,350011.0253463,350012.230633549,0,1.17944755108329,4
368,1,2,6,5,1.43500126792712,350013.4102641,350014.875307354,0,1.36334564606659,5
369,1,2,6,13,1.49044762031138,350016.2388186,350017.752833805,0,1.89655319473241,5
370,1,1,7,1,1.30172574834496,350019.6495505,350020.979698253,0,1.34298944735201,7
371,1,1,1,6,1.96492066361222,350022.3228077,350024.306332261,0,1.42334153858246,4
372,1,2,8,20,1.26583953744739,350025.7298451,350027.017620155,0,1.55710884486325,8
373,1,1,7,7,1.87760557674609,350028.574881,350030.477260753,0,1.81033254734939,7
374,1,1,9,13,1.4760796190118,350032.2877134,350033.78726706,0,2.0913882398163,7
375,1,2,6,18,1.90544243339268,350035.8789174,350037.795921943,0,1.78486855735537,4
376,1,2,4,11,1.74946867144674,350039.5809623,350041.355365055,0,2.47905934485607,4
377,1,1,5,7,1.85676600743015,350043.8345741,350045.713240528,0,2.28521347214701,5
378,1,1,3,3,1.77576473603865,350047.9986009,350049.788382305,0,2.68251489469549,3
379,1,2,5,14,1.0855946828848,350052.4710557,350053.580765453,0,2.17352394736372,4
380,1,1,8,6,1.30483686134032,350055.7544723,350057.073741263,0,1.73824193730252,7
381,1,2,3,11,1.59402978798511,350058.8121095,350060.433641359,0,2.09103924105875,3
382,1,1,9,16,1.3488416505615,350062.5248438,350063.893360249,0,1.92122515104711,8
383,1,1,9,1,1.96582005712427,350065.8147355,350067.802220255,0,1.29043634486152,8
384,1,2,7,22,1.91709863143678,350069.0928116,350071.029004046,0,2.68556795368204,6
385,1,1,6,5,1.1393275662622,350073.7147529,350074.871274836,0,1.42188596364576,5
386,1,2,1,8,1.69029151767616,350076.2933292,350077.998308773,0,2.29844742733985,1
387,1,1,6,14,1.56867653099978,350080.2968832,350081.890473261,0,1.37021323858062,4
388,1,2,5,7,1.4025551987101,350083.2608446,350084.684967145,0,2.93509125482524,5
389,1,2,3,8,1.88732185631151,350087.6202077,350089.525125431,0,1.44678616861347,3
390,1,2,1,3,1.92417608427742,350090.9720613,350092.918277198,0,1.63300550216809,1
391,1,2,9,8,1.64520408685474,350094.5514025,350096.228292759,0,1.58382064109901,8
392,1,1,1,1,1.02040076051898,350097.8122307,350098.856341464,0,1.89720853610197,2
393,1,2,4,22,1.23062400553029,350100.7536826,350102.016654651,0,1.53256354853511,3
394,1,1,9,18,1.33735744352104,350103.5493513,350104.910834448,0,2.5127883523237,8
395,1,2,9,3,1.94633864737774,350107.4239023,350109.401783658,0,2.7911695423536,9
396,1,2,9,21,1.85754241128067,350112.1930801,350114.059047668,0,1.87303003197303,9
