ID,State,Position ID,Morph Step,Face Person,ITI,Trial_Onset,Stim_Onset,Stim_Offset,RT,Answer
1,1,2,7,9,1.64094629449927,1152627.996593,1152629.6719808,0,1.90007440000772,6
2,1,1,2,16,1.61243227444934,1152631.57368,1152633.2134804,0,1.64657720015384,3
3,1,2,1,11,1.68730431551298,1152634.8609726,1152636.5734525,0,1.3905923999846,1
4,1,2,2,5,1.85818048618601,1152637.9653517,1152639.8490241,0,1.52303320006467,2
5,1,2,7,6,1.80820761364525,1152641.3736723,1152643.2100272,0,1.07417230005376,6
6,1,2,8,22,1.42074985688457,1152644.2842818,1152645.7327085,0,1.45536589995027,8
7,1,2,9,3,1.29250586345907,1152647.1881384,1152648.505685,0,0.986363400006667,8
8,1,2,9,12,1.48143787571927,1152649.4921989,1152650.9975227,0,0.822543599875644,8
9,1,2,3,6,1.5291235689778,1152651.8201386,1152653.3754246,0,2.0446677999571,4
10,1,1,6,2,1.17164298871284,1152655.420717,1152656.6187759,0,1.56931650009938,5
11,1,2,1,17,1.67891695120003,1152658.1881659,1152659.8864812,0,2.06158459978178,2
12,1,1,3,15,1.54616218750825,1152661.94814,1152663.5164028,0,1.22359889978543,3
13,1,1,3,6,1.8208387692558,1152664.7400691,1152666.5884342,0,2.15958189987577,5
14,1,2,5,4,1.88106689628274,1152668.7482879,1152670.6575365,0,1.16253209998831,5
15,1,1,5,6,1.49223362525724,1152671.8204891,1152673.3390368,0,1.01704910001718,5
16,1,1,1,4,1.9287461885565,1152674.3563425,1152676.3117576,0,2.21247100015171,2
17,1,1,4,4,1.82227767175808,1152678.5243029,1152680.3746197,0,1.00557780009694,5
18,1,2,2,18,1.66804277040472,1152681.3802682,1152683.0739719,0,1.30627130018547,2
19,1,2,4,12,1.01324190104596,1152684.3804941,1152685.421392,0,0.926782199880108,5
20,1,1,7,5,1.68811275155639,1152686.3482381,1152688.0608607,0,1.86333600012586,7
21,1,2,2,8,1.17701840991491,1152689.924272,1152691.12743,0,1.31671169982292,2
22,1,2,9,6,1.66005623432277,1152692.4444195,1152694.1279469,0,3.33228410012089,8
23,1,1,1,1,1.65943467937361,1152697.460438,1152699.1454022,0,1.97078169998713,2
24,1,2,2,21,1.2673288243202,1152701.1162562,1152702.4119687,0,2.01913010003045,3
25,1,1,3,20,1.1964194941106,1152704.431177,1152705.6546239,0,2.68558939988725,2
26,1,1,7,19,1.78629634916611,1152708.3402868,1152710.1554327,0,1.64093200000934,6
27,1,2,2,1,1.78763292557188,1152711.7964434,1152713.6066478,0,1.56554450001568,2
28,1,1,7,20,1.92790688962285,1152715.1722756,1152717.1241294,0,1.83206660021096,6
29,1,1,9,21,1.86419230723191,1152718.9562709,1152720.8497167,0,1.45158120011911,8
30,1,2,3,1,1.44364936168669,1152722.3022645,1152723.7713001,0,1.85694000008516,2
31,1,2,5,6,1.88938149916574,1152725.6283133,1152727.542418,0,1.64587909984402,5
32,1,1,5,17,1.38214097661534,1152729.1883704,1152730.5990949,0,2.90109970001504,5
33,1,1,8,6,1.57710655339615,1152733.5002696,1152735.105962,0,2.04202589998022,8
34,1,2,8,17,1.59286971646577,1152737.1481153,1152738.7661557,0,1.09393580001779,8
35,1,2,3,16,1.68508783504605,1152739.8601642,1152741.5691664,0,2.62694310001098,3
36,1,2,8,5,1.63471064880515,1152744.1961816,1152745.8551581,0,1.90093880007043,8
37,1,2,7,10,1.59914612534472,1152747.75617,1152749.380055,0,1.40005719987676,8
38,1,2,8,12,1.03350421895682,1152750.7801862,1152751.8420879,0,0.84200940001756,8
39,1,1,9,10,1.04908631549134,1152752.6841715,1152753.7593334,0,0.676771099912003,8
40,1,2,6,13,1.40360946100318,1152754.436179,1152755.8647841,0,1.43533829995431,6
41,1,1,7,9,1.52785726956742,1152757.300448,1152758.8550267,0,1.29308869992383,8
42,1,2,6,2,1.10974555504482,1152760.1482011,1152761.2825777,0,2.97758639999665,6
43,1,1,7,13,1.50312518504305,1152764.2602273,1152765.7891727,0,1.07097300002351,6
44,1,2,6,1,1.09952441758977,1152766.8603201,1152767.9883415,0,2.82377899996936,5
45,1,1,3,18,1.77836724509086,1152770.8122103,1152772.6178689,0,1.4181611998938,2
46,1,1,3,19,1.57970949658422,1152774.0362005,1152775.6409825,0,2.60316689987667,4
47,1,2,9,19,1.88839835001257,1152778.2442227,1152780.1575818,0,2.16649800003506,6
48,1,1,4,7,1.65051668677284,1152782.3241443,1152784.0018989,0,1.9942568000406,5
49,1,2,9,8,1.97223443965642,1152785.9968639,1152787.9929029,0,1.49922799994238,9
50,1,1,4,2,1.63001206388367,1152789.4924092,1152791.1468631,0,1.15312030003406,5
51,1,1,4,11,1.26148223833302,1152792.3000471,1152793.5894321,0,0.878747399896383,5
52,1,2,8,11,1.85463344360504,1152794.4696505,1152796.3475615,0,2.14476689998992,7
53,1,2,4,10,1.54718807446686,1152798.4924022,1152800.0669898,0,1.29711890011095,4
54,1,1,1,21,1.03598346703099,1152801.364172,1152802.428243,0,2.35995760001242,3
55,1,1,5,9,1.70516894047566,1152804.7882657,1152806.5187795,0,3.4534197000321,5
56,1,1,8,15,1.80621635087452,1152809.9722633,1152811.8038361,0,2.28028499986976,8
57,1,1,7,22,1.18902425581529,1152814.0841864,1152815.2961448,0,1.12409890000708,7
58,1,1,4,6,1.14369377882346,1152816.4203112,1152817.5922421,0,1.40401589986868,5
59,1,2,6,4,1.55120474751667,1152818.9964808,1152820.5762602,0,1.92401370010339,5
60,1,1,8,9,1.00963222022189,1152822.500338,1152823.5362276,0,2.22800819994882,8
61,1,1,7,17,1.29511562476073,1152825.7643089,1152827.0863539,0,1.46193260001019,8
62,1,2,7,3,1.86094809181077,1152828.5484719,1152830.4359882,0,1.43226360017434,6
63,1,1,8,5,1.24450697677265,1152831.8683266,1152833.1430911,0,1.62116779992357,8
64,1,1,4,10,1.97826309787759,1152834.7649371,1152836.7666238,0,2.03765229997225,5
65,1,2,8,15,1.98981496220185,1152838.8043509,1152840.8206747,0,1.07158240000717,8
66,1,2,7,5,1.23201876645274,1152841.8923322,1152843.151291,0,0.932965700048953,8
67,1,2,6,11,1.61590632611848,1152844.0843297,1152845.7206238,0,2.02762919990346,6
68,1,1,3,21,1.34511543117767,1152847.7483274,1152849.1201461,0,3.33210749994032,3
69,1,2,4,5,1.74750057875304,1152852.4523267,1152854.2256079,0,1.11464769998565,5
70,1,2,4,3,1.26688664262495,1152855.3403281,1152856.6361961,0,3.1279720000457,4
71,1,2,4,7,1.38924158184263,1152859.7642427,1152861.180412,0,1.23978169984184,5
72,1,1,6,3,1.69886641519851,1152862.4202607,1152864.1455766,0,0.970583799993619,5
73,1,1,4,22,1.49955902221993,1152865.116244,1152866.6410107,0,1.11518050008453,4
74,1,1,8,10,1.92882105111803,1152867.7562668,1152869.7138466,0,1.9463159001898,8
75,1,1,2,22,1.28389086262336,1152871.6602725,1152872.9757712,0,1.89240940008312,1
76,1,2,8,8,1.26255717532465,1152874.868256,1152876.1560684,0,1.44810939999297,8
77,1,2,9,10,1.87934896389986,1152877.6042519,1152879.512149,0,1.81194489984773,8
78,1,2,1,2,1.98429205871521,1152881.3241668,1152883.3327356,0,2.07952759996988,1
79,1,1,2,20,1.3213723314485,1152885.4125037,1152886.7607739,0,0.947868700139225,1
80,1,2,4,11,1.41047931282937,1152887.7089087,1152889.1458161,0,1.64227049984038,5
81,1,1,9,19,1.09129995920658,1152890.7883101,1152891.9078612,0,2.34417910012417,8
82,1,1,8,4,1.80435166367499,1152894.2522135,1152896.083651,0,1.15249350015074,8
83,1,1,3,2,1.88945655341885,1152897.2362079,1152899.154963,0,1.75323919998482,4
84,1,2,1,22,1.45860469650203,1152900.9084604,1152902.3921971,0,0.955998399993405,1
85,1,2,5,20,1.46776979987017,1152903.3482806,1152904.8421495,0,1.06597790005617,5
86,1,2,1,4,1.08824568397862,1152905.908344,1152907.0214597,0,1.84673310001381,2
87,1,1,8,14,1.43397745632499,1152908.8682591,1152910.3263916,0,1.74174429988489,2
88,1,2,7,11,1.66640085593195,1152912.0682066,1152913.7605609,0,2.35563910007477,6
89,1,1,1,17,1.38424697308036,1152916.1163693,1152917.5271154,0,2.31722020008601,2
90,1,2,6,22,1.5687127817689,1152919.8444092,1152921.438152,0,2.83015539986081,4
91,1,2,4,22,1.68820238957541,1152924.268833,1152925.9824139,0,1.50993679999374,5
92,1,1,1,11,1.76062815776167,1152927.492424,1152929.2779888,0,2.05429529980756,2
93,1,2,7,22,1.7585385280473,1152931.3325661,1152933.1192129,0,2.36504169995897,6
94,1,2,8,6,1.59763835708475,1152935.4843287,1152937.1054363,0,2.03499480010942,7
95,1,1,6,8,1.41703414036337,1152939.1404948,1152940.5816583,0,1.5826892000623,5
96,1,2,1,20,1.08942991331553,1152942.164422,1152943.2781764,0,1.54214379983023,2
97,1,1,6,21,1.5006689147559,1152944.8204095,1152946.3488786,0,1.15153080015443,5
98,1,1,6,14,1.2333376749437,1152947.5004835,1152948.7592237,0,0.749119299929589,5
99,1,1,3,22,1.84502467086379,1152949.5084175,1152951.3805553,0,1.35189069993794,4
100,1,2,9,22,1.44515275847924,1152952.7325216,1152954.2040032,0,1.72834839997813,7
101,1,1,6,15,1.21867620345838,1152955.9326398,1152957.1799597,0,1.28069479996338,5
102,1,2,4,8,1.13534346511899,1152958.4608644,1152959.6202465,0,1.57612499990501,5
103,1,2,6,6,1.94673573446608,1152961.1964402,1152963.1689112,0,0.875490000005811,5
104,1,1,5,15,1.2368525882326,1152964.0444747,1152965.3059995,0,0.794507200131193,5
105,1,1,9,15,1.05553833894058,1152966.1006752,1152967.1817193,0,3.59063059999608,7
106,1,2,6,19,1.32848401576498,1152970.7724258,1152972.1269736,0,0.917239900212735,5
107,1,1,6,1,1.91943655672389,1152973.0443011,1152974.9876315,0,1.00058869994245,5
108,1,2,2,15,1.51575960734806,1152975.9882946,1152977.5316146,0,1.24862829991616,2
109,1,2,7,20,1.11074269241931,1152978.7807071,1152979.9166974,0,0.887526500038803,5
110,1,2,1,18,1.63511223322181,1152980.8042992,1152982.4652322,0,1.10698799998499,1
111,1,2,7,12,1.41046256517182,1152983.5722935,1152985.0096119,0,1.00260449992493,6
112,1,2,6,9,1.83999013908371,1152986.0122918,1152987.8761998,0,1.26404220005497,5
113,1,2,5,8,1.55700730700715,1152989.1403165,1152990.7258456,0,1.1984206000343,5
114,1,2,6,12,1.24015644866958,1152991.9243474,1152993.1880921,0,1.00013540009968,5
115,1,1,8,13,1.47059270725818,1152994.1883011,1152995.6832501,0,1.60098930005915,6
116,1,2,3,18,1.24361100205897,1152997.2843143,1152998.5523105,0,2.42795329983346,4
117,1,1,2,13,1.27442432941676,1153000.9803362,1153002.2824307,0,1.22580219991505,3
118,1,2,1,15,1.98009963626061,1153003.5083068,1153005.5166987,0,3.047544100089,2
119,1,1,6,18,1.20855348598501,1153008.5645097,1153009.8022405,0,0.922162699978799,5
120,1,2,2,16,1.89507729264011,1153010.7244919,1153012.6423956,0,1.46587290009484,4
121,1,2,9,17,1.88529632382058,1153014.1083413,1153016.0224286,0,3.64585950016044,7
122,1,1,9,16,1.32811974139766,1153019.6683634,1153021.0218701,0,1.06240519997664,7
123,1,2,8,1,1.29481452651361,1153022.084352,1153023.4054328,0,1.1196445999667,6
124,1,1,5,22,1.16785180182282,1153024.5251402,1153025.7172334,0,0.967201299965382,5
125,1,2,7,14,1.80079839851813,1153026.6845125,1153028.5105869,0,1.24575270013884,6
126,1,1,1,13,1.49757734365175,1153029.7564075,1153031.2789217,0,2.71741769998334,4
127,1,2,8,20,1.08486784226392,1153033.997054,1153035.1063194,0,3.08208810002543,6
128,1,2,6,16,1.08069082432986,1153038.1884818,1153039.2982608,0,1.21012920001522,5
129,1,2,8,19,1.86676903700868,1153040.5092947,1153042.4021778,0,1.29007160011679,5
130,1,2,6,21,1.71413151288919,1153043.6923136,1153045.4294819,0,0.910989699885249,5
131,3,1,9,22,1.59329470594509,1153046.340548,1153047.9613603,0,NaN,None
132,1,1,2,15,1.37503616143378,1153051.9616593,1153053.3659604,0,1.18229729984887,3
133,1,1,1,18,1.84538006933865,1153213.0442843,1153215.8314089,0,1.23707969998941,1
134,1,2,5,15,1.16772647467392,1153217.0705042,1153218.265687,0,1.47467050002888,5
135,1,1,3,10,1.81734997997177,1153219.7404317,1153221.5829985,0,1.98935090005398,4
136,1,2,6,10,1.74623230923895,1153223.5724241,1153225.3423404,0,1.58220389997587,5
137,1,2,8,10,1.52947863289895,1153226.9246191,1153228.484624,0,1.22372379992157,7
138,1,2,1,14,1.6367180501754,1153229.7084291,1153231.3696479,0,1.01068999990821,2
139,1,1,3,8,1.42005099949365,1153232.3804122,1153233.8256222,0,1.60282059991732,5
140,1,1,9,13,1.04752632107714,1153235.4287491,1153236.501312,0,1.11166139994748,6
141,1,1,2,1,1.20040196902581,1153237.6135988,1153238.8423053,0,1.41002299985848,3
142,1,2,5,3,1.82303300800604,1153240.2524029,1153242.1013632,0,0.871013700030744,5
143,1,2,5,17,1.51145500180453,1153242.9724538,1153244.5107537,0,1.06201280001551,5
144,1,1,3,12,1.50985751253931,1153245.5731713,1153247.1036491,0,1.86071349983104,4
145,1,1,8,12,1.82642984751512,1153248.9645269,1153250.8206761,0,0.863713900092989,6
146,1,1,8,18,1.14106444966126,1153251.6846221,1153252.8537119,0,1.15865999995731,6
147,1,1,6,22,1.54442246224629,1153254.0124448,1153255.5832612,0,1.10113309998997,5
148,1,1,8,20,1.59137793986153,1153256.6844593,1153258.3069492,0,1.54553639981896,6
149,1,2,4,16,1.39957247311212,1153259.8528905,1153261.2783121,0,1.11798679991625,5
150,1,2,1,8,1.53244772157528,1153262.3965092,1153263.9550361,0,1.21736519993283,3
151,1,1,1,8,1.87202344579765,1153265.1724761,1153267.0693125,0,1.11907709995285,2
152,1,1,8,16,1.8557228551829,1153268.1884675,1153270.0702719,0,1.62214830005541,6
153,1,1,8,17,1.97619518214757,1153271.6924969,1153273.6989448,0,1.87632779986598,7
154,1,1,2,2,1.33955031017527,1153275.5753356,1153276.9450169,0,2.67538799997419,3
155,1,2,2,12,1.12414417314449,1153279.6204771,1153280.7711162,0,1.08112940005958,3
156,1,1,3,3,1.59210755184846,1153281.852499,1153283.4724056,0,2.05209190002643,4
157,1,2,1,21,1.23911870951871,1153285.5245605,1153286.7910894,0,1.13334019994363,3
158,1,2,1,9,1.07553872678824,1153287.9244921,1153289.0293096,0,1.07108280016109,2
159,1,1,9,9,1.26205464321479,1153290.100464,1153291.3867392,0,1.40162479993887,8
160,1,1,6,4,1.34478185299106,1153292.7885785,1153294.1590213,0,1.12536119995639,5
161,1,2,9,18,1.78350016784242,1153295.2844554,1153297.0978793,0,2.96265980019234,9
162,1,1,5,5,1.43512146299082,1153300.0606043,1153301.5266654,0,0.925757399993017,5
163,1,1,2,11,1.38607291762418,1153302.4524962,1153303.8662054,0,1.25020299991593,3
164,1,1,7,8,1.40520092245347,1153305.1166259,1153306.5454192,0,1.21095019998029,7
165,1,2,4,2,1.51987724312199,1153307.7564452,1153309.3042149,0,0.82028520014137,5
166,1,1,1,15,1.90039429343815,1153310.1246458,1153312.0499268,0,2.46658030012622,3
167,1,2,1,10,1.41700841991771,1153314.5165805,1153315.9646729,0,1.96773510007188,4
168,1,2,2,17,1.77195714636664,1153317.9324815,1153319.7294011,0,1.93127680011094,3
169,1,1,9,3,1.29120808893492,1153321.6607516,1153322.9802263,0,1.53619130002335,7
170,1,2,3,20,1.94437614931583,1153324.5164896,1153326.488965,0,1.45154380006716,4
171,1,1,4,15,1.34819258343763,1153327.9405828,1153329.3147486,0,2.48229990014806,4
172,1,1,7,15,1.81859908063884,1153331.797795,1153333.649912,0,1.16249450016767,7
173,1,1,9,6,1.92218627215871,1153334.8124823,1153336.7641218,0,1.30429770005867,7
174,1,2,4,17,1.20998842329492,1153338.0684929,1153339.3067666,0,1.49763529980555,5
175,1,2,1,12,1.9274485542449,1153340.8044743,1153342.7573095,0,2.95112570002675,3
176,1,1,4,1,1.16880014704537,1153345.7085519,1153346.9081691,0,2.10424429993145,4
177,1,2,5,5,1.64217820384213,1153349.0124884,1153350.6806841,0,0.8757366000209,5
178,1,1,2,3,1.05774781462245,1153351.556494,1153352.6403944,0,1.10804659989662,3
179,1,1,9,18,1.21565407698407,1153353.7485126,1153354.9932134,0,2.5552487000823,7
180,1,2,6,20,1.6908360764822,1153357.5485357,1153359.2645767,0,1.64386780001223,6
181,1,1,5,13,1.33463151626523,1153360.9085186,1153362.2623238,0,1.63026509992778,5
182,3,1,9,20,1.024757980231,1153363.8926608,1153364.941092,0,NaN,None
183,1,1,3,16,1.33973264031354,1153368.9414167,1153370.3085481,0,1.17589699989185,4
184,1,1,6,11,1.29456562432127,1153371.4845201,1153372.8055008,0,1.47973769996315,6
185,1,1,1,20,1.30713060398676,1153374.2855447,1153375.6212481,0,1.68722870014608,2
186,1,2,5,18,1.02966267840398,1153377.3085516,1153378.3676887,0,1.22074299980886,5
187,1,2,9,7,1.48057352355369,1153379.5885046,1153381.0950831,0,1.32538619986735,8
188,1,2,3,11,1.48652670582198,1153382.4206494,1153383.9313418,0,1.00915130018257,4
189,1,1,8,11,1.00311856676987,1153384.9405796,1153385.9722242,0,1.44824810000136,7
190,1,2,7,18,1.79108647490512,1153387.4205504,1153389.238337,0,2.72610249998979,7
191,1,1,8,7,1.04699264751962,1153391.964514,1153393.0364551,0,1.43193530011922,8
192,1,2,6,3,1.27163722857822,1153394.4685584,1153395.7652717,0,1.27943040011451,5
193,1,2,2,19,1.99454616271854,1153397.0449591,1153399.0664099,0,2.45047239982523,4
194,1,2,9,14,1.9448930532227,1153401.5171059,1153403.4823393,0,1.29819740005769,7
195,1,1,2,19,1.78637162669605,1153404.7806015,1153406.5920193,0,1.33253529993817,3
196,1,2,1,16,1.57842284475551,1153407.9247722,1153409.5283329,0,2.61222940008156,3
197,1,2,5,1,1.46961865248795,1153412.1407159,1153413.6380442,0,1.34240860003047,5
198,1,1,9,4,1.61598765338819,1153414.9805935,1153416.6223234,0,1.49426229996607,8
199,1,1,3,11,1.00098312599005,1153418.1167504,1153419.1421814,0,2.18231509998441,4
200,1,2,6,17,1.49420337655421,1153421.3245691,1153422.8442814,0,2.71234559989534,6
201,1,1,3,9,1.8205112405415,1153425.5567794,1153427.4009031,0,1.27570820017718,2
202,1,1,7,10,1.04493196229584,1153428.6766845,1153429.7513245,0,1.85315300012007,7
203,1,2,5,19,1.94110265249149,1153431.6047331,1153433.579558,0,1.22520460002124,5
204,1,1,5,3,1.37557821630533,1153434.8053581,1153436.2056573,0,0.782781400019303,5
205,1,2,4,6,1.47254028351808,1153436.9885084,1153438.484391,0,0.704185100039467,5
206,1,2,2,10,1.34884782192839,1153439.1886467,1153440.5634436,0,1.43315579998307,4
207,1,2,4,1,1.9072824445436,1153441.9966711,1153443.9288011,0,0.979847500100732,5
208,1,2,4,9,1.95103268949714,1153444.9087174,1153446.8854867,0,1.43927889992483,3
209,1,1,9,11,1.347411046846,1153448.3249791,1153449.6994474,0,1.28904820000753,8
210,1,1,6,16,1.97113019751546,1153450.9885675,1153452.9871778,0,1.58528870018199,6
211,1,1,8,3,1.14164064165713,1153454.5726517,1153455.7390165,0,1.04138489998877,7
212,1,2,7,2,1.63209448421834,1153456.7804811,1153458.4370049,0,2.57542659994215,6
213,1,2,7,4,1.8028032664578,1153461.012561,1153462.8437676,0,1.88873130013235,7
214,1,1,3,4,1.5838055755161,1153464.732573,1153466.3432622,0,1.3572519000154,4
215,1,2,6,15,1.68687053196518,1153467.7005892,1153469.4138981,0,1.19056690018624,5
216,1,2,3,2,1.91305780980171,1153470.6046032,1153472.5429282,0,1.88563850009814,4
217,1,1,4,8,1.35869790174241,1153474.4286984,1153475.8160139,0,0.812459799926728,5
218,1,2,5,2,1.81593256667016,1153476.6285443,1153478.4695699,0,0.838740899926051,5
219,1,2,8,13,1.8136445214884,1153479.308381,1153481.1476706,0,1.28863979992457,6
220,1,1,2,21,1.91627637942774,1153482.4363947,1153484.3780902,0,2.81040710001253,2
221,1,1,9,2,1.96121167922965,1153487.1885707,1153489.1792582,0,1.1691153999418,8
222,1,1,7,4,1.79200860687123,1153490.3484578,1153492.1593395,0,1.125176000176,8
223,1,1,5,7,1.7775055638712,1153493.284588,1153495.0914803,0,1.08889639982954,7
224,1,1,2,18,1.90294210982809,1153496.1804459,1153498.108765,0,1.67175259999931,3
225,1,2,9,5,1.43425034801689,1153499.7805901,1153501.2436246,0,2.39355229982175,8
226,1,1,4,19,1.96646137911182,1153503.6372692,1153505.6293424,0,1.27903679991141,5
227,1,1,1,10,1.19575859526461,1153506.9085763,1153508.133184,0,1.81542300013825,3
228,1,2,9,4,1.34262949841564,1153509.948684,1153511.3165502,0,3.06398939993232,9
229,1,2,4,13,1.45837724406401,1153514.3807535,1153515.8678473,0,0.872899600071833,5
230,1,1,1,22,1.02506761347154,1153516.7408188,1153517.7911162,0,1.22943200008012,1
231,1,2,5,14,1.99361028549285,1153519.0206188,1153521.0408366,0,1.37979700020514,5
232,1,1,1,6,1.13552659029829,1153522.4207046,1153523.5846335,0,1.43591989995912,3
233,1,1,5,18,1.60199980950602,1153525.0206258,1153526.6462926,0,0.926329299807549,5
234,1,1,7,6,1.32459561656009,1153527.5728485,1153528.9260194,0,0.742729100165889,5
235,1,1,8,22,1.29360054751056,1153529.6688171,1153530.990185,0,2.09490919997916,8
236,1,2,7,19,1.69259616593357,1153533.0851564,1153534.8063663,0,1.19827289995737,6
237,1,1,6,20,1.99755038844104,1153536.004936,1153538.0307382,0,1.68640580005012,6
238,1,1,3,7,1.46075716106941,1153539.7172179,1153541.2040422,0,2.93674309994094,4
239,1,2,3,3,1.75491536931,1153544.1408581,1153545.9259049,0,1.2227608000394,4
240,1,2,3,13,1.71380525002984,1153547.1487367,1153548.8871585,0,0.973503399873152,5
241,1,2,1,1,1.19307685307105,1153549.8607419,1153551.079097,0,2.92574630002491,2
242,1,1,2,9,1.51710576172408,1153554.0049161,1153555.5473851,0,1.217187799979,2
243,1,1,4,21,1.32421974864525,1153556.7646333,1153558.116571,0,1.02410699985921,5
244,1,2,9,20,1.22908161967148,1153559.1407521,1153560.3978859,0,2.4227887999732,8
245,1,1,4,17,1.06294699765564,1153562.8207466,1153563.9122051,0,0.940445599844679,5
246,1,1,5,2,1.20114301162955,1153564.8527304,1153566.0782421,0,1.27044310001656,5
247,1,2,8,4,1.29547595105827,1153567.3487575,1153568.668547,0,1.16816399991512,8
248,1,2,2,13,1.89057707234626,1153569.8367899,1153571.7518698,0,2.19677569996566,3
249,1,1,5,12,1.59426121142395,1153573.9487313,1153575.5712513,0,0.865298200165853,5
250,1,2,9,2,1.7212032373525,1153576.4366207,1153578.1816393,0,3.11140089994296,8
251,1,1,6,7,1.76568694694049,1153581.2951503,1153583.0892463,0,2.25931930006482,7
252,1,2,6,7,1.71167815746918,1153585.3486369,1153587.0846686,0,1.15190219995566,6
253,1,2,3,7,1.8289632890601,1153588.236642,1153590.0927651,0,1.8958325998392,3
254,1,2,6,18,1.1492054084487,1153591.9886686,1153593.1626436,0,0.921913200058043,5
255,1,1,8,21,1.65215922837381,1153594.0846705,1153595.7615505,0,2.05099639995024,8
256,1,2,5,21,1.80783613753318,1153597.8126167,1153599.6482664,0,2.39659380004741,5
257,1,2,7,17,1.23852113741322,1153602.0453278,1153603.3104893,0,2.05419589998201,7
258,1,1,1,9,1.00960360171251,1153605.3647556,1153606.4011191,0,2.15547740017064,1
259,1,2,8,7,1.60946231448967,1153608.5566651,1153610.1915178,0,1.37292709993199,7
260,1,1,5,14,1.94303317200688,1153611.5645065,1153613.5343775,0,1.16621139994822,5
261,1,1,2,4,1.36373591628874,1153614.7006592,1153616.0919617,0,2.8567963000387,2
262,1,2,1,6,1.42410144704636,1153618.9490269,1153620.400454,0,1.95616019982845,3
263,1,2,3,4,1.20594246245698,1153622.3568383,1153623.5908926,0,2.86170260002837,3
264,1,2,2,20,1.41145730154766,1153626.4526661,1153627.8917582,0,3.57691260008141,2
265,1,1,3,17,1.08071811351844,1153799.3785023,1153801.4125139,0,1.45628729998134,3
266,1,2,5,10,1.23236484613486,1153802.8688888,1153804.1265457,0,2.02227930002846,4
267,1,1,4,9,1.0727040548443,1153806.1489292,1153807.2463008,0,2.07840709993616,2
268,1,1,2,10,1.78952927639157,1153809.3247938,1153811.1400358,0,2.85675489995629,3
269,1,1,4,12,1.54803825387348,1153813.9968643,1153815.572334,0,1.42436790000647,5
270,1,2,8,2,1.3403633466446,1153816.9967742,1153818.3588435,0,1.31784250005148,6
271,1,2,5,7,1.56162104365086,1153819.6767626,1153821.2633916,0,1.22929710010067,5
272,1,2,4,21,1.86698726251618,1153822.4929004,1153824.3848578,0,0.755949300015345,5
273,1,1,7,3,1.39389451964215,1153825.1408773,1153826.5641603,0,2.42451940011233,6
274,1,2,9,1,1.6021204229161,1153828.9887813,1153830.6172457,0,1.8995270000305,8
275,1,2,2,22,1.8155540861592,1153832.5168501,1153834.3632238,0,2.20147760002874,2
276,3,1,1,2,1.50273882147761,1153836.5647732,1153838.0923844,0,NaN,None
277,3,1,2,7,1.34189608197018,1153842.0926203,1153843.4602698,0,NaN,None
278,1,1,3,5,1.96076833087069,1153847.4605738,1153849.4488092,0,0.811928200069815,5
279,1,2,3,12,1.50109527561833,1153850.2608002,1153851.7878014,0,1.21682720002718,4
280,1,2,4,14,1.58730072255957,1153853.0046906,1153854.6172233,0,1.63550959993154,4
281,1,2,4,4,1.46780815904143,1153856.2529601,1153857.7470665,0,0.921654100064188,5
282,1,2,7,13,1.56403348570482,1153858.6687929,1153860.2572067,0,2.07547949999571,6
283,1,1,2,17,1.77501123000514,1153862.3329224,1153864.1324996,0,1.96823549992405,7
284,1,1,5,21,1.00351447958412,1153866.1008067,1153867.1317046,0,1.10502709983848,5
285,1,2,9,21,1.75792720858754,1153868.2368036,1153870.0243611,0,0.908379500033334,7
286,1,1,2,5,1.6640720914825,1153870.9328045,1153872.6231122,0,2.70164299989119,4
287,1,1,7,1,1.70252930952491,1153875.3248264,1153877.0531354,0,1.63164050015621,7
288,1,2,8,21,1.95124926861997,1153878.685023,1153880.6617013,0,0.983136499999091,7
289,1,2,9,11,1.89433220753915,1153881.6449087,1153883.5652114,0,1.21562959998846,7
290,1,1,5,8,1.13671840904786,1153884.7809106,1153885.9464161,0,1.01042030006647,5
291,1,1,5,10,1.45651160411436,1153886.9569062,1153888.4419234,0,1.74686830001883,4
292,1,2,5,13,1.64478315993358,1153890.189039,1153891.8590016,0,0.873988700099289,5
293,1,1,7,12,1.02226508481116,1153892.7330601,1153893.7792591,0,2.2816237998195,7
294,1,2,9,9,1.84187791052331,1153896.0609539,1153897.9331272,0,1.39194909995422,8
295,1,2,2,6,1.24717040627545,1153899.3252622,1153900.5981755,0,2.574668899877,4
296,1,1,1,12,1.22865910178472,1153903.1729123,1153904.4256145,0,1.9073395000305,2
297,1,2,3,8,1.30700091046616,1153906.3332632,1153907.6693313,0,1.67149119987153,3
298,1,2,3,14,1.85369638871297,1153909.3408923,1153911.2206166,0,2.59234239999205,3
299,1,2,6,8,1.23441552215138,1153913.813047,1153915.0760229,0,1.03282009996474,5
300,1,2,1,5,1.43443286925404,1153916.1089155,1153917.5692159,0,1.75564539991319,3
301,1,2,9,15,1.40898053315497,1153919.3249325,1153920.7626441,0,2.64233450009488,8
302,1,1,4,3,1.58103748630352,1153923.4050553,1153925.0136389,0,3.15919920010492,5
303,1,1,7,21,1.27799720659822,1153928.1729091,1153929.475143,0,3.06570889987051,7
304,1,1,6,10,1.43545536129943,1153932.5409237,1153934.0049254,0,3.27187970001251,5
305,1,1,9,7,1.0001593855778,1153937.2768757,1153938.3059916,0,2.71473030000925,8
306,1,2,8,16,1.37865570468972,1153941.0207923,1153942.4240878,0,2.59671359998174,7
307,1,2,8,9,1.43185329054932,1153945.0208758,1153946.4762861,0,1.13652850012295,8
308,1,1,5,4,1.67165868882563,1153947.6130479,1153949.3163889,0,1.13636990007944,5
309,3,1,7,16,1.71961514646728,1153950.4528281,1153952.1999332,0,NaN,None
310,1,2,9,16,1.030409107016,1153956.200567,1153957.2582206,0,2.34656380000524,7
311,1,1,1,5,1.87971398299903,1153959.604856,1153961.5125085,0,1.53224950004369,3
312,1,2,4,18,1.71270341243903,1153963.0448271,1153964.7844387,0,1.42859170003794,5
313,1,1,6,12,1.90242589334436,1153966.2132818,1153968.1469215,0,3.34587670001201,5
314,1,2,5,16,1.74086582677683,1153971.4928783,1153973.2607545,0,2.4400064998772,5
315,1,2,4,19,1.96785669303819,1153975.7008317,1153977.697435,0,1.46724279993214,5
316,1,1,9,5,1.26265779579897,1153979.164885,1153980.4550307,0,1.01373509992845,8
317,1,2,1,7,1.50851517402982,1153981.4690147,1153983.0048689,0,1.36775239999406,2
318,1,2,6,5,1.15681773737604,1153984.3726883,1153985.5498477,0,1.5509184000548,5
319,1,2,1,13,1.15049898785334,1153987.1009867,1153988.2759205,0,2.12091219983995,3
320,1,1,6,17,1.11482185933144,1153990.3969047,1153991.5356101,0,1.109167000046,5
321,1,1,7,7,1.94562585202016,1153992.6448388,1153994.6184445,0,1.5385950000491,7
322,1,1,6,13,1.83622625967472,1153996.1571011,1153998.0189144,0,1.57809170009568,5
323,1,1,4,13,1.69377635759372,1153999.5970763,1154001.3174802,0,2.57533490005881,4
324,1,1,1,3,1.69095867697456,1154003.8929101,1154005.6078872,0,2.68500799988396,3
325,1,1,9,12,1.83805412247225,1154008.2931496,1154010.158282,0,3.15857789991423,7
326,1,2,2,11,1.94500112750216,1154013.316922,1154015.2877499,0,2.08514979993924,3
327,1,1,2,12,1.46144319009293,1154017.3729621,1154018.8624844,0,2.74240930005908,3
328,1,2,4,15,1.95615364901034,1154021.6049562,1154023.5868534,0,1.57804469997063,4
329,1,2,1,3,1.97157978903368,1154025.1650396,1154027.1646303,0,0.92825540015474,3
330,1,1,5,20,1.6047528514347,1154028.0931195,1154029.7229433,0,0.969956800108775,5
331,1,1,1,14,1.24659862364933,1154030.6929698,1154031.9672349,0,3.29359039990231,2
332,1,1,6,9,1.37525216051627,1154035.2608972,1154036.6636418,0,0.989245699951425,5
333,1,2,4,20,1.76495702061199,1154037.6529619,1154039.4485603,0,0.676495699910447,5
334,1,1,3,1,1.91877440177529,1154040.1251328,1154042.0690231,0,2.45587950013578,3
335,1,1,6,5,1.30144089819878,1154044.5249715,1154045.8519259,0,2.30506759998389,6
336,1,2,9,13,1.51030234648577,1154048.1570651,1154049.6933945,0,1.39952409989201,7
337,1,2,3,15,1.13867528947789,1154051.0929874,1154052.2592589,0,1.72182619990781,4
338,1,2,6,14,1.95219756700152,1154053.9811779,1154055.9661537,0,2.55868090013973,6
339,1,2,2,14,1.49569797025927,1154058.5249283,1154060.0458546,0,2.41498820018023,2
340,1,1,2,8,1.24574278309633,1154062.4609789,1154063.7320431,0,1.74478159984574,3
341,1,2,7,16,1.18867801016103,1154065.4768941,1154066.6939228,0,3.22304619988427,7
342,1,2,3,22,1.33909489900838,1154069.9170385,1154071.2833434,0,3.63349079992622,2
343,1,2,1,19,1.6614405230761,1154074.9169052,1154076.6036037,0,2.33718040003441,3
344,1,2,5,11,1.8078500801598,1154078.9408549,1154080.7755387,0,1.72557730018161,5
345,1,2,8,18,1.56979676241919,1154082.5011878,1154084.0979295,0,3.80296840006486,8
346,1,2,7,7,1.13576977215143,1154087.9009612,1154089.0611018,0,3.1196776998695,7
347,1,1,8,19,1.15855329163177,1154092.1809738,1154093.3694854,0,2.62738530011848,6
348,1,2,3,9,1.83438960059173,1154095.9969417,1154097.8555225,0,2.67728740000166,3
349,1,2,7,21,1.9190274640469,1154100.533002,1154102.4817031,0,2.47663729987107,7
350,1,1,1,19,1.81841928884725,1154104.9584026,1154106.8067514,0,1.44609170011245,4
351,1,1,1,7,1.86357784720926,1154108.2529291,1154110.1414843,0,3.11961120017804,2
352,1,1,9,14,1.72452970053892,1154113.261183,1154115.015909,0,0.820774300023913,9
353,1,1,3,14,1.7983864779843,1154115.8367498,1154117.6622498,0,1.43851380003616,3
354,1,1,5,1,1.96375425646336,1154119.1008336,1154121.0882401,0,1.43647049996071,4
355,1,1,2,14,1.73756323446548,1154122.5247728,1154124.2895503,0,1.27549479994923,2
356,1,2,8,3,1.68402257460643,1154125.5651156,1154127.2717194,0,2.27723649982363,7
357,1,1,4,16,1.34236289174205,1154129.5490489,1154130.9205956,0,2.94826099998318,5
358,1,1,9,8,1.25797135491085,1154133.8689182,1154135.1524433,0,2.6226941999048,8
359,1,1,4,5,1.91817214434319,1154137.7758885,1154139.7190251,0,1.11793909990229,5
360,1,2,7,15,1.21491505867314,1154140.8370277,1154142.0763137,0,1.75262759998441,8
361,1,2,2,2,1.23247366392512,1154143.8290158,1154145.0924788,0,1.70452499995008,3
362,1,2,3,10,1.31686440399412,1154146.7970747,1154148.1387964,0,1.89019059995189,4
363,1,1,7,14,1.44327180686789,1154150.0290607,1154151.4960233,0,2.67706239991821,7
364,1,2,5,12,1.13906117551397,1154154.1733309,1154155.3401875,0,1.88879880006425,5
365,1,1,7,11,1.50037080614179,1154157.2290609,1154158.7544745,0,3.87451250012964,6
366,1,2,7,8,1.88224983218911,1154162.6290607,1154164.5368632,0,2.38822460011579,7
367,1,1,5,11,1.9151732053117,1154166.9251604,1154168.8651982,0,2.28374549979344,6
368,1,1,7,18,1.51205256215309,1154171.1492472,1154172.6868037,0,1.41405900008976,8
369,1,2,2,7,1.72497459848383,1154174.1012462,1154175.8493061,0,1.35554239992052,2
370,1,2,3,5,1.08922607255966,1154177.2049202,1154178.3205659,0,1.42018529982306,5
371,1,1,5,19,1.50255143714212,1154179.7409262,1154181.2679503,0,1.56091840006411,5
372,3,2,3,17,1.99713095653729,1154182.8289412,1154184.8510996,0,NaN,None
373,1,1,9,17,1.44605315267391,1154188.8511872,1154190.3250837,0,1.25577539997175,8
374,1,2,2,9,1.83893686447193,1154191.5809282,1154193.4445045,0,1.40038270014338,2
375,1,1,6,6,1.28296411363047,1154194.8449593,1154196.1464636,0,1.61822480009869,5
376,1,2,2,3,1.02226348482081,1154197.765014,1154198.8121807,0,2.37652190006338,3
377,1,1,8,2,1.77372483050856,1154201.1887711,1154202.992194,0,1.50866080005653,8
378,1,1,5,16,1.38988277986238,1154204.5009257,1154205.9155126,0,1.51333050010726,5
379,1,2,3,19,1.02697408676429,1154207.4290258,1154208.4793784,0,1.30145350005478,5
380,1,2,5,22,1.39388295636876,1154209.7808925,1154211.2014102,0,0.995484099956229,5
381,1,1,7,2,1.22019250359656,1154212.1969999,1154213.4436603,0,1.04926329990849,6
382,1,1,4,14,1.37703624854628,1154214.4929953,1154215.8994757,0,1.5615839001257,3
383,1,1,8,1,1.8529739099664,1154217.4611291,1154219.3392364,0,2.10563809983432,7
384,1,1,9,1,1.69801235455342,1154221.4449373,1154223.1680025,0,1.30091039999388,8
385,1,1,4,18,1.14917524612113,1154224.4689825,1154225.6469048,0,0.893850499996915,5
386,1,1,8,8,1.46603744366883,1154226.5409652,1154228.0322163,0,2.46070150006562,7
387,1,1,6,19,1.45414122847661,1154230.4929895,1154231.9744673,0,1.03844709997065,5
388,1,1,3,13,1.96659636193652,1154233.0130158,1154235.0056741,0,0.999347199918702,5
389,1,2,5,9,1.95691223929024,1154236.0051061,1154237.9883566,0,1.5527468000073,5
390,1,1,1,16,1.23861367319112,1154239.5411981,1154240.8039061,0,2.5931394000072,3
391,1,2,3,21,1.14296155735741,1154243.3971204,1154244.5663048,0,1.37466769991443,3
392,1,2,7,1,1.53602941228475,1154245.9411724,1154247.5039508,0,1.97297009988688,5
393,1,2,2,4,1.10408317477879,1154249.4771255,1154250.6074719,0,2.4454689999111,3
394,1,1,4,20,1.22247731572649,1154253.0530135,1154254.3014203,0,1.55162369995378,5
395,3,2,8,14,1.95000471698155,1154255.8531155,1154257.8298933,0,NaN,None
396,1,1,2,6,1.72136448554079,1154261.8299194,1154263.5762896,0,2.29272809997201,4
