ID,State,Position ID,Morph Step,Face Person,ITI,Trial_Onset,Stim_Onset,Stim_Offset,RT,Answer
1,1,2,5,18,1.84709359163387,837340.8299615,837342.7000018,0,1.48770779999904,5
2,1,1,9,21,1.26687482569196,837344.190374,837345.484857,0,1.83571030001622,9
3,1,1,1,6,1.21137704378985,837347.3221463,837348.5614034,0,1.41923100000713,4
4,1,2,9,17,1.59156253215651,837349.9809095,837351.6014586,0,2.95441619993653,7
5,1,1,1,22,1.16652451816618,837354.5577354,837355.74951,0,1.45808330003638,2
6,1,2,1,9,1.58911729859675,837357.2076732,837358.8216962,0,0.899863600032404,1
7,1,2,6,3,1.02481562781739,837359.7216355,837360.7733022,0,1.36027820000891,5
8,1,1,5,8,1.38042174707694,837362.1336495,837363.5407927,0,1.86177960003261,5
9,1,2,4,10,1.34308686350744,837365.4026417,837366.7735978,0,0.921139899990521,5
10,1,2,8,16,1.62682476613683,837367.694998,837369.3462392,0,1.78131220000796,7
11,1,1,8,4,1.84975136938328,837371.1277398,837373.0066564,0,2.95193099998869,8
12,1,2,2,7,1.70311964045007,837375.9587784,837377.6899575,0,2.63764620001893,3
13,1,2,8,20,1.95499842758594,837380.3276736,837382.3098601,0,2.59968549991027,6
14,1,1,9,9,1.59010896234181,837384.9097659,837386.5307843,0,1.2548232000554,7
15,1,2,7,11,1.42159273596485,837387.7856784,837389.2303262,0,1.21548250003252,6
16,1,2,5,7,1.11596709037274,837390.446114,837391.5843845,0,1.16119439993054,5
17,1,1,4,13,1.43079170928755,837392.7457882,837394.2041565,0,1.26256679999642,5
18,1,1,7,10,1.72618730633702,837395.4667946,837397.2174904,0,1.93814620003104,5
19,1,1,3,14,1.56465622000717,837399.155706,837400.7471117,0,1.93549129995517,3
20,1,2,6,10,1.81711408955067,837402.6828401,837404.5288348,0,2.59981669997796,5
21,1,1,9,13,1.20973171276488,837407.1287222,837408.3704919,0,1.33317009999882,7
22,1,2,6,12,1.12430922449992,837409.7037325,837410.8536151,0,1.3039992999984,5
23,1,1,3,8,1.01844526895842,837412.1577391,837413.2000658,0,2.76755860005505,4
24,1,2,5,8,1.33254591768739,837415.9678645,837417.3289126,0,0.930729900021106,4
25,3,1,2,13,1.79665680433946,837418.259712,837420.0817141,0,NaN,None
26,1,1,2,11,1.1251795351592,837424.08222,837425.2325309,0,1.45414569997229,4
27,1,2,2,10,1.08226173434053,837426.6867401,837427.7945686,0,1.48307319998275,3
28,1,2,3,15,1.20879201267319,837429.2777128,837430.5140729,0,2.19656399998348,4
29,1,2,6,8,1.23367963336766,837432.7107045,837433.9668514,0,1.43762590002734,5
30,1,2,5,19,1.74094532401871,837435.4045392,837437.1756493,0,0.674992099986412,5
31,1,2,4,8,1.99825831090006,837437.8507092,837439.8757647,0,0.805981999961659,5
32,1,2,4,18,1.77161477942723,837440.6818155,837442.4769979,0,1.02270619990304,4
33,1,1,4,17,1.30607559815088,837443.5000211,837444.8362896,0,0.772478300030343,5
34,1,1,5,21,1.03327040553666,837445.6088368,837446.6699428,0,1.38370320003014,4
35,1,1,5,5,1.0706824630759,837448.0537269,837449.1507485,0,0.533950799959712,5
36,1,2,2,2,1.4287549120909,837449.6848785,837451.1390984,0,1.78852800000459,2
37,1,1,8,1,1.49977249033708,837452.9276849,837454.455295,0,1.12544279999565,7
38,1,1,1,14,1.40704730995921,837455.5808163,837457.0167679,0,1.10384980007075,1
39,1,1,6,21,1.89805168892509,837458.120692,837460.0472224,0,0.913517800043337,5
40,1,2,4,19,1.63699711646152,837460.9608114,837462.6252779,0,1.04746369994245,5
41,1,1,1,18,1.70341829374641,837463.6730685,837465.4089431,0,1.18170890002511,1
42,1,2,9,3,1.83428274599343,837466.5908571,837468.4531551,0,2.05968980002217,8
43,1,1,5,20,1.778059691179,837470.5129321,837472.321089,0,1.05642100004479,5
44,1,2,9,9,1.33402860084461,837473.3776236,837474.7403652,0,1.26337780000176,8
45,1,1,8,14,1.62216282612763,837476.0038117,837477.6526209,0,1.35520180000458,9
46,1,2,7,2,1.23952190000848,837479.0080764,837480.2748188,0,1.11894780001603,8
47,1,2,6,18,1.80701085506121,837481.3940627,837483.2322871,0,1.98038609989453,6
48,1,2,7,1,1.01627636734012,837485.2127566,837486.2550023,0,1.30860989994835,8
49,1,1,9,11,1.20735447914504,837487.5638891,837488.798832,0,3.45007939997595,9
50,1,1,2,21,1.82406223974133,837492.2491959,837494.1000932,0,1.86455539998133,1
51,1,2,1,13,1.98294350055842,837495.9647275,837497.9729434,0,1.91381309996359,1
52,1,2,9,6,1.80412331338883,837499.8868264,837501.7170967,0,2.79453459999058,9
53,1,2,9,12,1.52203207747252,837504.5119441,837506.0642401,0,1.1763471000595,8
54,1,1,5,15,1.36176377156864,837507.2406534,837508.6273032,0,2.81049770000391,6
55,1,2,5,16,1.75727893221372,837511.4378711,837513.2200691,0,0.826588899944909,5
56,1,2,4,21,1.80870759567635,837514.0467915,837515.8825764,0,1.46010740008205,4
57,1,2,7,9,1.92244390000748,837517.3427546,837519.2901204,0,1.27056350000203,6
58,1,1,7,1,1.97883494324593,837520.5607534,837522.566283,0,0.962401099968702,6
59,1,1,3,17,1.85671185749821,837523.5287532,837525.4102011,0,2.64138099993579,3
60,1,1,5,9,1.32564936489599,837528.0517001,837529.4031997,0,1.87548519996926,4
61,1,2,8,12,1.03691055407145,837531.2787569,837532.3444141,0,1.6286893999204,6
62,1,1,4,6,1.84414285489359,837533.9731714,837535.8437624,0,0.797751200036146,5
63,1,1,8,9,1.29778428535024,837536.6416418,837537.966997,0,0.909481899929233,6
64,1,2,6,2,1.70795518600046,837538.8773216,837540.6165176,0,1.68018349993508,5
65,1,1,9,5,1.34808205460032,837542.2967713,837543.674244,0,0.896448499988765,6
66,1,1,7,3,1.84077259194217,837544.5707628,837546.4372297,0,2.6214794999687,6
67,3,1,3,13,1.13033431390327,837549.0587801,837550.2137634,0,NaN,None
68,1,2,9,15,1.72001343566557,837554.2137889,837555.9597341,0,1.2520076999208,8
69,1,1,6,8,1.89034161483851,837557.2119748,837559.1309222,0,1.41082369990181,5
70,1,1,9,14,1.24175989308751,837560.5418169,837561.8097852,0,1.71793319995049,9
71,1,2,8,9,1.58260899876853,837563.5277858,837565.1344289,0,1.50026880006772,8
72,1,2,5,21,1.91850360834467,837566.6349656,837568.5782791,0,1.77260020002723,3
73,1,2,8,5,1.97500781254812,837570.3509387,837572.3511029,0,2.79571049998049,7
74,1,2,5,22,1.77512578886853,837575.1471358,837576.9508834,0,2.06682539999019,4
75,1,1,4,18,1.558772219222,837579.0177894,837580.6027174,0,1.29828290001024,3
76,1,2,2,15,1.29643804834232,837581.9010726,837583.2227309,0,3.20915689994581,2
77,1,2,2,21,1.53731703902132,837586.4319605,837587.9981397,0,1.37660979991779,2
78,3,2,7,6,1.79045137941705,837589.3749478,837591.1950527,0,NaN,None
79,1,1,5,6,1.66501531270109,837595.1950775,837596.8854145,0,2.20429979998153,5
80,1,1,7,12,1.75421289910679,837599.0899293,837600.8695297,0,1.48128179996274,4
81,3,2,4,11,1.75563859429243,837602.350996,837604.134569,0,NaN,None
82,1,1,1,8,1.05719988500469,837608.1345867,837609.2173063,0,1.14042040007189,1
83,1,2,5,12,1.62381603234167,837610.3577965,837612.0097036,0,1.53902310004923,5
84,1,1,9,16,1.6617308673164,837613.5487949,837615.2406006,0,1.27812569995876,8
85,1,1,8,6,1.12325501260493,837616.5187957,837617.6702305,0,1.0445083999075,8
86,1,1,3,3,1.45050109798764,837618.7148086,837620.1940192,0,1.17272969998885,4
87,1,2,5,15,1.19769804075993,837621.367026,837622.5923381,0,0.825382900075056,5
88,1,2,2,5,1.92168547829405,837623.417793,837625.3647299,0,2.72204289992806,2
89,1,1,1,1,1.41580952684175,837628.0868503,837629.5297972,0,1.66392980003729,2
90,1,1,2,6,1.36275966848619,837631.1937969,837632.5863496,0,1.56752230005804,3
91,1,1,2,7,1.66127496319085,837634.1539395,837635.8417393,0,2.99721449997742,1
92,1,1,4,19,1.38715383179271,837638.839024,837640.251763,0,3.16096979996655,5
93,1,2,6,22,1.75455662616665,837643.4128636,837645.1959289,0,2.92090519994963,3
94,1,2,8,14,1.98612910370467,837648.1169388,837650.1276001,0,1.21514999994542,9
95,1,2,4,3,1.3080001301815,837651.3428206,837652.680687,0,1.76005909999367,4
96,1,2,2,22,1.19253446673193,837654.4408168,837655.6576541,0,1.32317930005956,2
97,1,1,1,9,1.56605341855183,837656.9810115,837658.5767208,0,1.15803279995453,1
98,1,1,1,3,1.8085027760186,837659.7348344,837661.5739769,0,1.30280200007837,3
99,1,2,4,7,1.87731271270896,837662.8768496,837664.7819509,0,1.39084969996475,5
100,1,2,3,11,1.41185270143838,837666.1730665,837667.6101857,0,0.698547199950553,5
101,1,1,6,18,1.35467030940324,837668.3087953,837669.6892466,0,2.10352499992587,5
102,1,1,4,8,1.76031926846551,837671.7928537,837673.5783713,0,0.926496700034477,5
103,1,1,9,6,1.1516051506435,837674.5049386,837675.6829007,0,2.42587589996401,8
104,1,2,4,17,1.68151305471344,837678.109056,837679.8178762,0,1.57776070002001,4
105,1,2,1,21,1.40249582481984,837681.3958051,837682.8278403,0,1.84616819990333,1
106,1,2,1,7,1.01461810357965,837684.6740937,837685.7140957,0,2.61579400009941,1
107,1,2,9,13,1.89067189661874,837688.3299604,837690.2480176,0,1.25675329996739,9
108,1,1,9,15,1.3555759394252,837691.5048379,837692.8842923,0,1.33260480000172,8
109,1,1,6,20,1.2553110504752,837694.2169649,837695.5006169,0,1.19613179995213,5
110,1,1,2,5,1.69112060514232,837696.696819,837698.4155175,0,1.81748969992623,3
111,1,2,8,10,1.08859442518723,837700.2331328,837701.3482393,0,1.02051740000024,8
112,1,1,3,19,1.1281669380813,837702.3689478,837703.5222408,0,1.58448479999788,4
113,1,1,8,11,1.40741270330464,837705.1070055,837706.5419197,0,1.11401110002771,7
114,1,1,2,17,1.95557105946928,837707.6561517,837709.6402692,0,1.30159789999016,2
115,1,2,3,2,1.97431148136875,837710.9421284,837712.9444765,0,1.292303299997,3
116,1,2,2,13,1.03922235623414,837714.2368477,837715.3018972,0,1.28715039999224,2
117,1,1,8,12,1.5891982074821,837716.5891658,837718.2069713,0,2.48391340009402,3
118,1,1,8,7,1.31165941724718,837720.6909594,837722.0279886,0,1.34891960001551,2
119,1,2,6,4,1.69065522901445,837723.3771964,837725.0927749,0,1.75174159999005,3
120,1,2,5,20,1.59101807610281,837726.8457411,837728.4649556,0,3.36482790007722,3
121,1,1,8,19,1.40512977597241,837731.829862,837733.2632223,0,1.46663240005728,6
122,1,1,6,16,1.38097798717942,837734.7301149,837736.1398561,0,0.94194090005476,5
123,1,1,6,1,1.94311603104305,837737.0820241,837739.0521912,0,0.835595600074157,5
124,1,1,4,10,1.89785078189875,837739.8878566,837741.811585,0,1.49129569996148,5
125,1,2,8,21,1.59065038465843,837743.3029548,837744.9226471,0,1.02417210000567,7
126,1,2,5,2,1.97819583458423,837745.9468872,837747.9525686,0,1.48721670010127,4
127,1,1,6,13,1.12909704540448,837749.4398554,837750.5946152,0,1.83134979999159,5
128,1,1,8,10,1.74826220590573,837752.426137,837754.1954047,0,1.01953279995359,6
129,1,2,8,7,1.37948793141975,837755.2150064,837756.6215001,0,1.22832330001984,7
130,1,2,9,18,1.56920478514108,837757.8498939,837759.4458565,0,1.1839930000715,8
131,1,2,2,9,1.47115319697965,837760.6300765,837762.1275908,0,1.27419619995635,1
132,1,2,4,15,1.41641394962533,837763.4018596,837764.8374266,0,1.00138549995609,5
133,1,1,4,2,1.03724394967479,837893.777408,837894.8508988,0,1.18794830003753,4
134,1,1,7,21,1.99584496253119,837896.0408688,837898.0672294,0,1.13764440000523,6
135,1,2,3,8,1.34544890640764,837899.2051555,837900.5788184,0,1.66510589991231,4
136,1,2,6,13,1.17389432510254,837902.2441493,837903.4436239,0,1.07427950005513,5
137,1,1,4,22,1.4130243656849,837904.5181498,837905.9581568,0,1.15976980002597,5
138,1,2,9,2,1.7130486516961,837907.117993,837908.8494303,0,1.40038040000945,7
139,1,1,3,18,1.43656572603444,837910.2498855,837911.7110577,0,1.33683060004842,3
140,1,1,3,5,1.63886439621012,837913.0479593,837914.7116686,0,1.67429200001061,2
141,1,2,8,22,1.99779354495983,837916.38603,837918.4094759,0,1.46994310000446,7
142,1,1,4,3,1.79950800840086,837919.8794875,837921.7050313,0,1.3139745000517,4
143,1,1,4,15,1.17305203951173,837923.0190773,837924.2173414,0,1.57372700003907,6
144,1,1,5,16,1.47202712472105,837925.7913938,837927.2889245,0,2.6989854000276,5
145,1,1,3,16,1.25913547804721,837929.9879799,837931.275227,0,2.57369089999702,5
146,1,1,8,16,1.3816709360583,837933.8489877,837935.2565738,0,2.18844549998175,6
147,1,1,9,7,1.9762623659857,837937.4454583,837939.4443693,0,2.85762329993304,7
148,1,1,4,5,1.40179579289023,837942.3022441,837943.7301127,0,1.60986099997535,5
149,1,2,7,5,1.7609191342874,837945.3401547,837947.1305525,0,2.10634339996614,5
150,1,2,3,13,1.56873291614339,837949.2369659,837950.829427,0,1.92545380000956,5
151,1,1,3,7,1.73979792685541,837952.755093,837954.5242915,0,1.36275650002062,3
152,1,2,9,8,1.0200590428912,837955.8871188,837956.9320578,0,1.85661400004756,6
153,1,2,3,18,1.01547549424093,837958.7889788,837959.8342988,0,1.13263200002257,3
154,1,1,2,3,1.21884528468495,837960.9671617,837962.2149287,0,1.91147429996636,3
155,1,2,8,11,1.98095109380238,837964.1267412,837966.1341524,0,1.24376510002185,6
156,1,1,2,18,1.41868575140627,837967.3780013,837968.8255578,0,2.04533799993806,2
157,1,2,7,10,1.70842449343524,837970.8710862,837972.6077686,0,3.15515030000824,6
158,1,2,3,9,1.08474252868122,837975.7629917,837976.8719625,0,1.12197049998213,1
159,1,1,8,17,1.13067489332614,837977.9940049,837979.1524823,0,2.08436480001546,9
160,1,2,3,19,1.69428130888293,837981.2370811,837982.9578479,0,2.09038129996043,2
161,1,2,5,6,1.42680081226554,837985.0482919,837986.503668,0,1.87425600003917,1
162,1,1,7,20,1.47176085508154,837988.3779932,837989.8751496,0,3.76265260006767,7
163,1,1,2,2,1.13032663631105,837993.6379291,837994.7849411,0,2.41422699997202,2
164,1,1,6,15,1.26258026239233,837997.1992497,837998.4877988,0,2.26425520004705,2
165,1,2,4,5,1.80375028982165,838000.7521348,838002.5869761,0,3.90710780001245,4
166,1,2,4,13,1.9003224166832,838006.4941693,838008.422702,0,2.93629820004571,1
167,1,1,8,20,1.8211406728463,838011.3590722,838013.2093771,0,2.91267240000889,6
168,1,1,7,4,1.82311986349533,838016.1221345,838017.9720445,0,2.02902029990219,2
169,3,2,6,5,1.34935214737129,838020.0011454,838021.3768152,0,NaN,None
170,1,1,2,19,1.60569225164711,838025.3771386,838027.0086029,0,2.34660510008689,5
171,1,2,2,12,1.5617673628057,838029.3552908,838030.9428812,0,1.16618629998993,2
172,1,2,6,21,1.44667353086481,838032.1091498,838033.5814397,0,2.81070280005224,4
173,1,2,4,16,1.06349380693623,838036.3922247,838037.4880419,0,2.47404280002229,5
174,1,2,1,1,1.01046096201913,838039.962166,838041.0017306,0,2.57232579996344,1
175,1,1,1,13,1.72213444783117,838043.5741532,838045.3220694,0,2.24399680003989,2
176,1,2,5,14,1.231195488666,838047.5661481,838048.8253802,0,2.24991749995388,3
177,3,1,9,2,1.46454892380265,838051.0754024,838052.5608293,0,NaN,None
178,1,1,2,10,1.61572508294562,838056.5608509,838058.2018089,0,2.10723480000161,5
179,1,1,9,20,1.71224977160414,838060.309138,838062.0501597,0,1.82939630001783,7
180,1,1,9,4,1.86568465063107,838063.8796711,838065.7742647,0,1.61488899996039,9
181,1,2,6,20,1.89250783350279,838067.3892364,838069.3094935,0,1.80384629999753,5
182,1,1,4,4,1.91645581863275,838071.1136823,838073.0565585,0,1.73760319990106,5
183,1,1,5,22,1.520925951857,838074.7944635,838076.3418685,0,1.15627769997809,5
184,1,1,5,3,1.33691888541619,838077.4982444,838078.8608662,0,1.61519890010823,4
185,1,1,3,20,1.08699188324728,838080.4761509,838081.593186,0,2.06695969996508,3
186,1,1,9,10,1.08781160036731,838083.66043,838084.7776529,0,1.06141060008667,8
187,1,1,1,10,1.47856086789796,838085.8391481,838087.3459646,0,1.18853010004386,2
188,1,2,7,8,1.44699082043491,838088.5350606,838090.0130326,0,1.26712429989129,6
189,1,1,2,12,1.30880063890922,838091.2802419,838092.6198,0,1.19210680003744,3
190,1,1,7,5,1.73040877241322,838093.8121282,838095.5689036,0,1.67614860006142,6
191,1,1,9,12,1.39033347737408,838097.2453847,838098.6629224,0,2.20319659996312,8
192,1,1,7,15,1.09076579451702,838100.8662418,838101.9817548,0,1.2794485000195,6
193,1,2,7,22,1.58287466584799,838103.2612852,838104.8707648,0,2.32934010005556,6
194,1,2,9,10,1.02582359742367,838107.2001912,838108.252896,0,1.53840679989662,6
195,1,1,6,6,1.85953522325295,838109.7914,838111.6781259,0,2.60109710006509,4
196,3,1,7,19,1.20026097220766,838114.2793067,838115.5061926,0,NaN,None
197,1,2,1,8,1.84547634088426,838119.5062191,838121.3793312,0,2.07279359991662,1
198,1,1,1,4,1.91403807073226,838123.4522361,838125.3921537,0,1.23595710005611,3
199,1,1,1,2,1.82450593896684,838126.6281918,838128.4797087,0,1.185406900011,1
200,1,2,4,4,1.11282976610779,838129.6651991,838130.8081217,0,2.15312010003254,5
201,1,1,6,12,1.16016747610554,838132.9613447,838134.1510444,0,1.30716830003075,4
202,1,2,5,1,1.45463135539143,838135.4582978,838136.9325262,0,1.57190179999452,5
203,3,2,6,7,1.43232556375658,838138.5050222,838139.9660045,0,NaN,None
204,1,1,9,17,1.87346072887112,838143.9660299,838145.8660184,0,1.2980931000784,7
205,1,2,7,13,1.93518658380139,838147.1643099,838149.1276998,0,1.3493895001011,5
206,1,2,6,17,1.26883675976568,838150.47717,838151.7770173,0,2.23476619995199,6
207,1,2,8,15,1.40167246954028,838154.0119413,838155.4419795,0,1.43614899995737,7
208,1,1,2,22,1.78406291436676,838156.8782081,838158.6883519,0,1.43391260004137,2
209,1,1,8,18,1.14668850754774,838160.1223343,838161.2950327,0,1.61510099994484,7
210,1,2,9,22,1.66020745469638,838162.9102152,838164.5978666,0,1.865094400011,8
211,1,2,1,19,1.0175415158943,838166.4632373,838167.5081513,0,2.83400809997693,5
212,1,1,1,12,1.8753730750521,838170.3422465,838172.2446725,0,2.92969400004949,1
213,1,1,3,9,1.92534438467906,838175.1744604,838177.1282402,0,0.765884899999946,1
214,1,1,1,5,1.734905128053,838177.8942079,838179.6558504,0,1.64641190005932,2
215,1,1,8,21,1.13490348256873,838181.3025964,838182.4647131,0,1.23140539997257,7
216,3,1,5,2,1.32028225316056,838183.6964022,838185.0423024,0,NaN,None
217,1,1,6,9,1.01955460546555,838189.0423274,838190.0865553,0,2.59477759990841,5
218,1,2,3,7,1.67241744073139,838192.6814141,838194.3793722,0,3.87096670002211,4
219,1,2,8,1,1.21645706919648,838198.250438,838199.4948888,0,2.79720110003836,6
220,1,2,1,2,1.13747501403918,838202.2921671,838203.4591909,0,2.49691380001605,2
221,1,1,7,2,1.00640598192169,838205.9561867,838206.9927368,0,1.7444524000166,5
222,1,1,8,8,1.73191834727689,838208.7372701,838210.4961804,0,0.90993979992345,6
223,1,2,1,14,1.13441636077905,838211.4062188,838212.5675514,0,1.19856289995369,1
224,1,2,4,12,1.76850555822686,838213.7663966,838215.5598061,0,2.47945510002319,4
225,1,1,1,16,1.93698395319555,838218.0393452,838220.0047139,0,0.86751159990672,4
226,1,1,5,13,1.38788449651379,838220.8723091,838222.2871941,0,0.806911600055173,5
227,1,2,8,13,1.3961865172194,838223.094397,838224.515694,0,1.90048950002529,7
228,1,1,5,1,1.76135983497032,838226.4164878,838228.204943,0,1.30020830000285,5
229,1,1,1,17,1.51522428211072,838229.5052322,838231.0539925,0,1.39417690003756,3
230,1,1,5,7,1.45027991310445,838232.4482543,838233.9290561,0,0.880207300069742,5
231,1,2,8,2,1.05478576488396,838234.8093431,838235.8890556,0,1.24492550001014,6
232,1,2,5,4,1.06013376083857,838237.1340555,838238.2204687,0,1.31013329990674,4
233,1,2,1,12,1.83986397332904,838239.5315366,838241.4019669,0,1.13817419996485,2
234,1,2,2,17,1.21484682206657,838242.540224,838243.781631,0,1.62564810004551,1
235,1,1,2,14,1.11560022857165,838245.4073634,838246.5489015,0,1.10621210001409,1
236,1,2,6,14,1.72495130374291,838247.6552571,838249.4088653,0,1.7213783999905,3
237,1,1,7,7,1.24512715127286,838251.1308398,838252.406429,0,3.93373020004947,4
238,1,1,6,11,1.91731793308714,838256.3403105,838258.2854425,0,3.53881329996511,5
239,1,1,7,11,1.85636001726393,838261.8243447,838263.7120243,0,0.883009599987417,5
240,1,2,5,9,1.36940264076578,838264.5951057,838265.9894118,0,1.15573169989511,2
241,1,2,8,17,1.05963021189841,838267.1459539,838268.2358243,0,1.49939280003309,7
242,1,2,7,18,1.31903911498293,838269.7353009,838271.0791021,0,2.72509600000922,5
243,1,2,6,1,1.41591290369141,838273.8042813,838275.2473346,0,2.38298130000476,4
244,1,2,1,22,1.97385572371469,838277.6303988,838279.6309815,0,1.38974849996157,1
245,1,1,4,1,1.00559485572511,838281.0208597,838282.055411,0,2.90409859991632,3
246,1,1,3,10,1.4392951273413,838284.9596259,838286.4299097,0,1.67946220003068,2
247,1,1,7,22,1.46597566952372,838288.1094879,838289.6020346,0,1.62215910002124,6
248,1,1,4,14,1.51381755729931,838291.2242754,838292.7651549,0,2.53546549996827,4
249,1,2,3,5,1.62843445772956,838295.3012074,838296.9584263,0,3.68799070001114,5
250,1,2,3,6,1.77286168814847,838300.6465004,838302.4455683,0,2.02856310002971,5
251,1,1,1,20,1.13564683004691,838304.4744645,838305.6394278,0,1.51276110007893,1
252,1,1,9,19,1.49236521388692,838307.1524333,838308.6702594,0,2.12109339993913,1
253,1,2,7,4,1.05672974177377,838310.7916809,838311.8735752,0,2.9667935000034,3
254,1,2,1,20,1.29312815179306,838314.8404547,838316.1608614,0,2.20619510009419,2
255,1,2,1,4,1.55943254092694,838318.3672528,838319.9514095,0,2.4667850000551,3
256,1,2,7,14,1.75212317832363,838322.418274,838324.1996429,0,1.53201399999671,8
257,1,1,7,14,1.56437340591006,838325.7318849,838327.3263419,0,0.909820099943317,8
258,1,2,3,4,1.20774897489846,838328.236473,838329.4694974,0,1.43580099998508,3
259,1,1,9,3,1.9821635919315,838330.9055388,838332.9137505,0,1.25243140000384,7
260,1,2,6,15,1.67350437247254,838334.1666382,838335.8674798,0,2.36691750003956,6
261,1,2,7,16,1.30263829269871,838338.2344679,838339.5623936,0,2.67979750002269,6
262,1,2,1,10,1.40105876158899,838342.2424547,838343.6746283,0,3.37257230002433,3
263,1,1,3,12,1.3623253347703,838347.0472805,838348.435509,0,3.23758000007365,3
264,1,1,5,17,1.60827359388228,838351.6731769,838353.3100398,0,0.998277200036682,5
265,1,2,7,20,1.80829980475527,838489.84688,838492.4959898,0,1.20326229999773,5
266,1,1,9,22,1.64362842007584,838493.6993386,838495.3674857,0,1.17170620011166,9
267,1,1,3,15,1.93406129627013,838496.5392639,838498.5030826,0,0.902139600017108,3
268,1,1,1,7,1.58835601279749,838499.4053035,838501.0198776,0,1.46666809997987,1
269,1,2,7,15,1.68785393318791,838502.4866261,838504.20263,0,0.978650000062771,6
270,1,1,3,2,1.43664947279131,838505.1813596,838506.6446947,0,1.56562369992025,4
271,1,2,8,18,1.29012998457459,838508.2104001,838509.5307554,0,1.04876919998787,6
272,1,2,3,22,1.93585317094187,838510.5796185,838512.5440002,0,1.9742852000054,3
273,1,2,4,14,1.93954466277117,838514.5185543,838516.4852285,0,1.37921529996675,4
274,1,2,9,4,1.16593251514254,838517.8645339,838519.0599951,0,1.37932359997649,8
275,1,1,5,18,1.07427997238343,838520.4394041,838521.5405277,0,0.769803300034255,5
276,1,1,4,16,1.86990485310402,838522.3104145,838524.2091686,0,2.13414909993298,5
277,1,2,3,10,1.945936956495,838526.3436639,838528.3183405,0,1.3732359999558,4
278,1,2,4,6,1.85661335703378,838529.6916959,838531.5789908,0,0.892336599994451,5
279,1,1,8,15,1.9888811921212,838532.4714108,838534.4872237,0,1.52015130000655,7
280,1,1,2,20,1.3422801209061,838536.0074559,838537.375905,0,1.3174206999829,2
281,1,2,5,5,1.25594590326542,838538.6934211,838539.9796419,0,0.825003299978562,5
282,1,1,9,18,1.49884439422103,838540.8048139,838542.330079,0,1.09139409998897,6
283,1,1,2,15,1.37731711572599,838543.4217335,838544.8277463,0,1.35660689999349,2
284,1,2,2,18,1.19836813502917,838546.184602,838547.4118071,0,1.39047759992536,1
285,1,2,7,19,1.27998350293402,838548.8025766,838550.1033116,0,1.08570499997586,6
286,1,1,5,4,1.70207257584025,838551.1891884,838552.916616,0,0.982923000003211,5
287,1,2,6,11,1.86074305704851,838553.8998267,838555.7856351,0,2.51677650003694,6
288,1,2,2,11,1.06444610414219,838558.3024945,838559.3957742,0,1.32653500000015,2
289,1,2,9,20,1.71806012517466,838560.7223928,838562.4703757,0,3.21195249992888,8
290,1,2,8,4,1.44829263970692,838565.6824124,838567.1567429,0,1.27181199996267,7
291,1,1,4,20,1.11515986590477,838568.4289339,838569.5729348,0,1.16656490007881,5
292,3,1,9,1,1.20337594369281,838570.7401993,838571.9686124,0,NaN,None
293,1,1,2,8,1.50072148595878,838575.9686386,838577.49385,0,1.91148340003565,1
294,1,1,6,17,1.73012137724185,838579.4054143,838581.1617649,0,1.98457279999275,5
295,1,1,9,8,1.68839412937401,838583.1464199,838584.8641614,0,1.34629519993905,1
296,1,1,6,14,1.53178526649037,838586.2105383,838587.7686078,0,1.25664319994394,5
297,1,2,3,3,1.83793922816435,838589.0255039,838590.8922139,0,2.15813989995513,2
298,1,1,3,22,1.81639249110232,838593.0504326,838594.8927703,0,1.2566595999524,3
299,1,1,7,9,1.57610809062504,838596.1496323,838597.7514236,0,2.43841239996254,7
300,1,2,1,16,1.14410126467268,838600.1901132,838601.3592161,0,1.40614900004584,1
301,1,2,9,11,1.3382038953173,838602.7654478,838604.1341031,0,1.10127310000826,9
302,1,1,8,13,1.67034021378136,838605.235457,838606.9313795,0,1.07596580008976,9
303,1,2,2,16,1.47078028757534,838608.0074271,838609.5034127,0,2.44395580003038,1
304,1,1,8,5,1.03842345585235,838611.9474499,838613.0106168,0,1.51073629991151,8
305,1,2,2,8,1.33140057997083,838614.5214366,838615.8828098,0,1.21250340004917,2
306,1,2,1,3,1.90980144830921,838617.0956101,838619.0343933,0,1.33992170006968,1
307,1,2,6,19,1.48585939738797,838620.374391,838621.8863419,0,2.22992199996952,6
308,1,2,3,21,1.85720604795243,838624.1163975,838625.9997239,0,1.75465919997077,4
309,1,1,2,9,1.92961775582717,838627.7544655,838629.7131056,0,1.43225810001604,1
310,1,2,2,4,1.43859106369062,838631.1456448,838632.6132237,0,2.47014880005736,2
311,1,2,7,12,1.11021017382139,838635.083453,838636.2183792,0,1.39600309997331,6
312,1,1,4,7,1.45759534025362,838637.6144654,838639.0985203,0,0.97086889995262,5
313,1,2,2,20,1.71463218104929,838640.0694723,838641.8107453,0,1.34759929997381,1
314,1,2,4,9,1.84544173996655,838643.1584545,838645.0293096,0,1.03920679993462,2
315,3,1,2,1,1.792911502784,838646.0685995,838647.8874387,0,NaN,None
316,1,2,9,14,1.20392358737769,838651.8874625,838653.1165202,0,1.22392659995239,9
317,1,2,7,7,1.45971284667072,838654.3408121,838655.8298421,0,1.78152969991788,7
318,1,1,6,22,1.97738410319358,838657.6119124,838659.6196136,0,2.30792749999091,5
319,1,2,2,1,1.71443392664649,838661.9278699,838663.6717893,0,1.20763939991593,1
320,1,2,6,9,1.54958256549782,838664.8797658,838666.4548664,0,2.11461579997558,4
321,1,2,8,8,1.005561885196,838668.5698511,838669.6064211,0,1.1259321999969,6
322,1,2,5,11,1.97868098220067,838670.7324332,838672.738665,0,0.783118800027296,5
323,1,1,3,1,1.51376577865925,838673.5218921,838675.0639165,0,0.997484700055793,4
324,1,1,8,22,1.7620158911775,838676.0616512,838677.8511047,0,1.47928269999102,7
325,1,1,7,18,1.27710385378489,838679.330467,838680.6375674,0,1.06281170004513,6
326,1,2,1,15,1.5426224828394,838681.7004626,838683.2699918,0,1.33939690003172,1
327,1,2,8,6,1.45813234612941,838684.6094701,838686.0908209,0,1.24658539996017,6
328,1,2,9,5,1.28261477433035,838687.337491,838688.64857,0,1.14383230009116,8
329,1,1,6,10,1.55616103221031,838689.7924867,838691.3786119,0,0.920070499996655,5
330,1,2,5,13,1.71214274281314,838692.2991371,838694.0389896,0,0.670467599993572,5
331,1,2,3,20,1.01351118692475,838694.7097369,838695.7500236,0,2.25571200007107,3
332,1,1,3,6,1.2296236956676,838698.0058641,838699.2616659,0,1.23282929998823,4
333,1,1,4,11,1.87050624044814,838700.4945755,838702.3935606,0,0.837827899958938,5
334,1,2,2,19,1.27413191852073,838703.2314707,838704.5315396,0,1.92753760004416,3
335,1,2,1,18,1.26429917098766,838706.4592503,838707.7546306,0,1.14977869996801,1
336,1,1,5,11,1.71603738225655,838708.904491,838710.6467478,0,0.788762899930589,5
337,1,1,6,19,1.76027828132155,838711.4360009,838713.2271155,0,0.911393499933183,4
338,1,2,1,17,1.08247167507437,838714.1386058,838715.2466466,0,1.50172790000215,1
339,1,1,6,2,1.31905849681698,838716.7485996,838718.0947833,0,1.38164989999495,4
340,1,2,6,16,1.07160520557422,838719.4765157,838720.572994,0,1.41091059998143,5
341,1,1,3,4,1.13091521377528,838721.9843096,838723.1417883,0,1.02061130001675,4
342,1,1,4,9,1.33331723531427,838724.1624784,838725.523982,0,1.25657399999909,3
343,1,2,5,10,1.17195106552028,838726.780688,838727.981137,0,0.850243499968201,5
344,1,1,7,16,1.27072090774504,838728.8316291,838730.1273536,0,0.969092400046065,5
345,1,1,7,8,1.29563006902731,838731.0965282,838732.4210647,0,2.16841829998884,6
346,1,2,4,2,1.10234892525426,838734.5898412,838735.7165109,0,1.79891980008688,5
347,1,1,5,19,1.93791746246013,838737.5155126,838739.4823136,0,0.771118799922988,5
348,1,1,8,2,1.79980975630905,838740.2535152,838742.0799122,0,1.80351930006873,5
349,1,2,8,3,1.40125150519918,838743.8835143,838745.3136703,0,1.63302530010697,6
350,1,1,2,16,1.64852828652798,838746.9467813,838748.622139,0,1.8695013000397,2
351,1,2,9,7,1.26711296560031,838750.4917221,838751.7843933,0,1.08406890009064,8
352,1,1,3,21,1.87565387428747,838752.8685507,838754.7710512,0,1.42737699998543,3
353,1,2,1,11,1.66186070785637,838756.198508,838757.8884643,0,1.08131240005605,1
354,1,1,6,4,1.93426376784982,838758.9706476,838760.9336636,0,1.72697429999243,3
355,1,1,5,12,1.50538150390701,838762.6608655,838764.1913225,0,3.1381424999563,4
356,1,1,3,11,1.39594394833155,838767.3295499,838768.7539837,0,2.07526569999754,1
357,1,2,3,12,1.25472057494222,838770.8293219,838772.109972,0,1.48380389995873,4
358,1,2,7,17,1.45616685313758,838773.5938618,838775.0749392,0,2.36274340003729,6
359,3,1,8,3,1.4572995366277,838777.437883,838778.9208436,0,NaN,None
360,1,1,6,3,1.78054836509235,838782.9208748,838784.72723,0,2.66520200006198,5
361,1,2,4,1,1.67964725329934,838787.3925047,838789.1003972,0,1.96517580002546,4
362,1,1,1,11,1.35795549928446,838791.0656559,838792.4517938,0,1.18824769998901,1
363,1,1,6,5,1.16589101309963,838793.6403393,838794.8380388,0,3.016478799982,5
364,1,1,1,15,1.25997421132432,838797.8548276,838799.1436966,0,1.17444079997949,1
365,1,2,4,20,1.45093744520484,838800.318666,838801.7974449,0,3.88219469995238,5
366,1,1,7,6,1.3512063458517,838805.6797235,838807.0583401,0,2.47511969995685,6
367,1,2,3,1,1.27465238201567,838809.5335545,838810.8347924,0,2.96371549996547,4
368,3,2,3,17,1.29939696487821,838813.7988883,838815.1280453,0,NaN,None
369,1,1,4,12,1.71655985549717,838819.1280683,838820.8713959,0,0.933577199932188,5
370,1,1,1,19,1.68199666863461,838821.8052432,838823.5130695,0,2.49639079999179,5
371,1,2,9,21,1.73978076441909,838826.00955,838827.7770512,0,1.46862369996961,8
372,1,2,8,19,1.19506631999828,838829.2460045,838830.4695355,0,1.46193290001247,7
373,1,2,2,3,1.23914203131977,838831.9315504,838833.2016056,0,2.12000350002199,4
374,1,1,5,10,1.52982927571504,838835.3216922,838836.8778697,0,2.69161680003162,5
375,1,1,5,14,1.02727954734654,838839.5697785,838840.6223466,0,2.02021519991104,3
376,1,2,9,1,1.66966123114647,838842.6426457,838844.3389583,0,1.26378590008244,8
377,1,2,7,21,1.88876319885215,838845.6030137,838847.5207696,0,1.78074449999258,6
378,1,1,6,7,1.47991546832203,838849.3016051,838850.8091524,0,1.35836630000267,5
379,1,2,2,14,1.51164638707199,838852.1676032,838853.7074622,0,1.21417880000081,1
380,1,2,2,6,1.59929752086018,838854.9221066,838856.54758,0,3.54882599995472,3
381,1,2,7,3,1.73830041764046,838860.0964823,838861.8628658,0,3.48559789999854,2
382,1,2,1,5,1.51826781607153,838865.3485362,838866.8925033,0,2.11990010004956,2
383,1,1,1,21,1.80705725322284,838869.012657,838870.8454831,0,1.61721479997505,1
384,1,1,7,13,1.83788304817188,838872.4627815,838874.3270928,0,0.805643899948336,5
385,1,2,3,14,1.19318342980287,838875.1328169,838876.3516051,0,3.34609140001703,3
386,1,2,4,22,1.84089899382663,838879.697781,838881.5645682,0,2.329934499925,5
387,1,2,9,16,1.51202522526458,838883.8945856,838885.4325838,0,2.76094249996822,7
388,1,1,7,17,1.96082844615077,838888.1936066,838890.1801444,0,3.45468490000349,8
389,1,2,3,16,1.97552234202444,838893.63561,838895.6391897,0,2.84345709998161,5
390,1,2,9,19,1.89671790869874,838898.4830203,838900.4108728,0,2.1736562999431,7
391,1,2,5,17,1.57923319421409,838902.5846143,838904.1896932,0,2.45393530000001,4
392,1,1,2,4,1.1279040139208,838906.6437094,838907.8030156,0,1.3554843000602,2
393,1,2,1,6,1.52301916922956,838909.1585822,838910.7001444,0,2.50861639995128,4
394,1,1,4,21,1.58318625256965,838913.2090314,838914.821702,0,0.713789300061762,5
395,1,2,5,3,1.23953249038849,838915.5356777,838916.8049556,0,1.88760040001944,5
396,1,2,6,6,1.76437865391517,838918.6926378,838920.481811,0,1.66903599991929,5
