ID,State,Position ID,Morph Step,Face Person,ITI,Trial_Onset,Stim_Onset,Stim_Offset,RT,Answer
1,1,2,7,9,1.64094629449927,231296.8627305,231298.5124467,0,2.61529679998057,6
2,1,1,2,16,1.61243227444934,231301.1295281,231302.7515265,0,1.95952319999924,4
3,1,2,1,11,1.68730431551298,231304.712049,231306.4112284,0,2.50692910002545,3
4,1,2,2,5,1.85818048618601,231308.9188964,231310.7878577,0,1.54299770001671,4
5,1,2,7,6,1.80820761364525,231312.3331082,231314.1535923,0,2.08031160000246,5
6,1,2,8,22,1.42074985688457,231316.2358492,231317.6686324,0,1.13726470002439,6
7,1,2,9,3,1.29250586345907,231318.8065612,231320.1112806,0,1.14136110001709,6
8,1,2,9,12,1.48143787571927,231321.2527673,231322.7442491,0,1.05770059998031,6
9,1,2,3,6,1.5291235689778,231323.8020669,231325.3430451,0,1.59396970001399,5
10,1,1,6,2,1.17164298871284,231326.9371452,231328.1212397,0,1.00214520000736,5
11,1,2,1,17,1.67891695120003,231329.1235203,231330.8132205,0,1.23743620002642,3
12,1,1,3,15,1.54616218750825,231332.0507942,231333.6087441,0,0.87366720000864,4
13,1,1,3,6,1.8208387692558,231334.4825172,231336.3146084,0,0.884504000016022,5
14,1,2,5,4,1.88106689628274,231337.1992433,231339.0921424,0,2.16982129999087,5
15,1,1,5,6,1.49223362525724,231341.2620961,231342.7645762,0,1.35932060002233,5
16,1,1,1,4,1.9287461885565,231344.124007,231346.063808,0,0.657481700007338,5
17,1,1,4,4,1.82227767175808,231346.7214256,231348.555528,0,0.746680100011872,5
18,1,2,2,18,1.66804277040472,231349.3023757,231350.9808643,0,1.50344599998789,4
19,1,2,4,12,1.01324190104596,231352.4844234,231353.5091188,0,0.94160190000548,5
20,1,1,7,5,1.68811275155639,231354.4508411,231356.1498435,0,1.01765640001395,6
21,1,2,2,8,1.17701840991491,231357.167668,231358.356524,0,1.09275599999819,4
22,1,2,9,6,1.66005623432277,231359.4493981,231361.121163,0,0.899828399997205,6
23,1,1,1,1,1.65943467937361,231362.0210954,231363.6924379,0,1.34544189998996,4
24,1,2,2,21,1.2673288243202,231365.0379846,231366.31634,0,1.13306530000409,4
25,1,1,3,20,1.1964194941106,231367.4495319,231368.6583621,0,0.832875500025693,4
26,1,1,7,19,1.78629634916611,231369.4913625,231371.2898579,0,1.36355390000972,7
27,1,2,2,1,1.78763292557188,231372.6535281,231374.4529785,0,1.13245269999607,4
28,1,1,7,20,1.92790688962285,231375.5855317,231377.5246114,0,2.82950500000152,7
29,1,1,9,21,1.86419230723191,231380.3542207,231382.2300668,0,1.12099990001298,7
30,1,2,3,1,1.44364936168669,231383.3511923,231384.8039078,0,1.80486209999071,5
31,1,2,5,6,1.88938149916574,231386.6089811,231388.5088792,0,2.76781069999561,5
32,1,1,5,17,1.38214097661534,231391.276827,231392.6702801,0,0.898293300007936,5
33,1,1,8,6,1.57710655339615,231393.568682,231395.1563547,0,1.11931680000271,6
34,1,2,8,17,1.59286971646577,231396.2757763,231397.8788137,0,0.843444500002079,6
35,1,2,3,16,1.68508783504605,231398.7223631,231400.4185382,0,1.9610176999995,4
36,1,2,8,5,1.63471064880515,231402.3796817,231404.0241869,0,0.902359800005797,6
37,1,2,7,10,1.59914612534472,231404.9266598,231406.5362768,0,1.13200389998383,6
38,1,2,8,12,1.03350421895682,231407.6683417,231408.7135749,0,0.771516600012546,6
39,1,1,9,10,1.04908631549134,231409.4852906,231410.5455063,0,0.895283499994548,6
40,1,2,6,13,1.40360946100318,231411.4409052,231412.8556381,0,0.992635300004622,5
41,1,1,7,9,1.52785726956742,231413.8483861,231415.3879228,0,1.87734609999461,6
42,1,2,6,2,1.10974555504482,231417.2653867,231418.385733,0,0.635005099989939,5
43,1,1,7,13,1.50312518504305,231419.0208439,231420.5352728,0,2.37325399997644,6
44,1,2,6,1,1.09952441758977,231422.9086591,231424.0186046,0,2.03179130001809,5
45,1,1,3,18,1.77836724509086,231426.0505219,231427.8412487,0,0.731081500009168,4
46,1,1,3,19,1.57970949658422,231428.5724401,231430.1621151,0,2.57278659997974,5
47,1,2,9,19,1.88839835001257,231432.7350236,231434.6347986,0,2.51797350001289,5
48,1,1,4,7,1.65051668677284,231437.1529003,231438.8160577,0,0.84344830000191,5
49,1,2,9,8,1.97223443965642,231439.6596309,231441.6422811,0,0.769566899980418,6
50,1,1,4,2,1.63001206388367,231442.4120067,231444.0521484,0,0.655763100017793,5
51,1,1,4,11,1.26148223833302,231444.7080401,231445.9795855,0,1.00009280000813,5
52,1,2,8,11,1.85463344360504,231446.9797823,231448.8457649,0,0.845189199986635,6
53,1,2,4,10,1.54718807446686,231449.6910153,231451.2520461,0,1.20638869999675,5
54,1,1,1,21,1.03598346703099,231452.4585457,231453.5042132,0,0.88611559997662,4
55,1,1,5,9,1.70516894047566,231454.3904351,231456.1067103,0,2.62081849999959,5
56,1,1,8,15,1.80621635087452,231458.7276472,231460.546055,0,1.674094099988,6
57,1,1,7,22,1.18902425581529,231462.2202608,231463.420946,0,2.82201090001035,6
58,1,1,4,6,1.14369377882346,231466.2430643,231467.396765,0,0.917564199975459,5
59,1,2,6,4,1.55120474751667,231468.3144329,231469.8768051,0,1.6397372999927,5
60,1,1,8,9,1.00963222022189,231471.5166499,231472.5367174,0,0.495978599996306,6
61,1,1,7,17,1.29511562476073,231473.0328017,231474.33849,0,0.965913799998816,6
62,1,2,7,3,1.86094809181077,231475.3045084,231477.1761006,0,0.700664300005883,5
63,1,1,8,5,1.24450697677265,231477.8768714,231479.1330017,0,0.715757100027986,5
64,1,1,4,10,1.97826309787759,231479.8488628,231481.8389289,0,1.56101630002377,5
65,1,2,8,15,1.98981496220185,231483.4000668,231485.3998135,0,0.746704699995462,6
66,1,2,7,5,1.23201876645274,231486.146621,231487.3876987,0,1.17584549999447,6
67,1,2,6,11,1.61590632611848,231488.5637142,231490.1911218,0,2.82972820001305,5
68,1,1,3,21,1.34511543117767,231493.0209936,231494.3769763,0,0.975826899986714,4
69,1,2,4,5,1.74750057875304,231495.3529276,231497.1102218,0,1.41929080002592,5
70,1,2,4,3,1.26688664262495,231498.5295732,231499.8067041,0,2.00560600002063,4
71,1,2,4,7,1.38924158184263,231501.8124227,231503.212887,0,0.800800299999537,5
72,1,1,6,3,1.69886641519851,231504.013795,231505.7234871,0,0.597153499984415,5
73,1,1,4,22,1.49955902221993,231506.3207481,231507.8316377,0,0.940694299992174,5
74,1,1,8,10,1.92882105111803,231508.7724504,231510.7133318,0,1.0511633999995,6
75,1,1,2,22,1.28389086262336,231511.7646012,231513.0586457,0,2.9586043000163,3
76,1,2,8,8,1.26255717532465,231516.0173481,231517.2899806,0,0.883434699993813,6
77,1,2,9,10,1.87934896389986,231518.1735368,231520.0637959,0,0.837598799989792,6
78,1,2,1,2,1.98429205871521,231520.9015241,231522.8975619,0,2.1957795000053,4
79,1,1,2,20,1.3213723314485,231525.0934712,231526.4259285,0,2.45591530000092,4
80,1,2,4,11,1.41047931282937,231528.8819986,231530.3037104,0,1.74898289999692,5
81,1,1,9,19,1.09129995920658,231532.0529004,231533.155465,0,1.41906450001989,6
82,1,1,8,4,1.80435166367499,231534.5746408,231536.3903235,0,0.986111300007906,6
83,1,1,3,2,1.88945655341885,231537.3765408,231539.2780146,0,2.21105180002633,5
84,1,2,1,22,1.45860469650203,231541.4891731,231542.9582847,0,1.5981160000083,3
85,1,2,5,20,1.46776979987017,231544.5565095,231546.0349926,0,1.12804270000197,5
86,1,2,1,4,1.08824568397862,231547.1631344,231548.2627618,0,1.2668943000026,5
87,1,1,8,14,1.43397745632499,231549.5297925,231550.9747885,0,1.26182549999794,6
88,1,2,7,11,1.66640085593195,231552.2367462,231553.9146651,0,3.29062700000941,6
89,1,1,1,17,1.38424697308036,231557.2053943,231558.6001327,0,1.5271020999935,4
90,1,2,6,22,1.5687127817689,231560.1273638,231561.706394,0,1.1690127000038,5
91,1,2,4,22,1.68820238957541,231562.8755362,231564.5744652,0,0.996717199974228,5
92,1,1,1,11,1.76062815776167,231565.5713348,231567.3428513,0,1.76101149999886,4
93,1,2,7,22,1.7585385280473,231569.103971,231570.8741695,0,2.72765109999455,5
94,1,2,8,6,1.59763835708475,231573.6019432,231575.2111462,0,0.743413500022143,6
95,1,1,6,8,1.41703414036337,231575.9546872,231577.3825728,0,1.03789849998429,5
96,1,2,1,20,1.08942991331553,231578.4206012,231579.5209722,0,1.89666590001434,3
97,1,1,6,21,1.5006689147559,231581.4177416,231582.9324985,0,1.31699939997634,5
98,1,1,6,14,1.2333376749437,231584.2496367,231585.4935112,0,0.857615699991584,5
99,1,1,3,22,1.84502467086379,231586.3512298,231588.2089878,0,0.909309800015762,4
100,1,2,9,22,1.44515275847924,231589.1184369,231590.5750919,0,0.899756499973591,6
101,1,1,6,15,1.21867620345838,231591.475048,231592.7036639,0,1.57260620000307,5
102,1,2,4,8,1.13534346511899,231594.2763956,231595.422845,0,0.810032800014596,5
103,1,2,6,6,1.94673573446608,231596.2330195,231598.1896129,0,0.590081200003624,5
104,1,1,5,15,1.2368525882326,231598.7798204,231600.0272024,0,0.949804300005781,5
105,1,1,9,15,1.05553833894058,231600.9771354,231602.0430954,0,0.8853223999904,6
106,1,2,6,19,1.32848401576498,231602.9285416,231604.2673809,0,1.61205519997748,5
107,1,1,6,1,1.91943655672389,231605.879596,231607.8138419,0,1.18538939999416,5
108,1,2,2,15,1.51575960734806,231608.999358,231610.5247207,0,0.893411199998809,4
109,1,2,7,20,1.11074269241931,231611.4182764,231612.5395029,0,2.67618749997928,5
110,1,2,1,18,1.63511223322181,231615.215796,231616.8618754,0,2.55658410000615,4
111,1,2,7,12,1.41046256517182,231619.4185896,231620.8411598,0,2.83022899998468,5
112,1,2,6,9,1.83999013908371,231623.6715125,231625.5228119,0,0.724921199987875,5
113,1,2,5,8,1.55700730700715,231626.247865,231627.8161753,0,0.68828690002556,5
114,1,2,6,12,1.24015644866958,231628.504606,231629.7553949,0,0.965383999980986,5
115,1,1,8,13,1.47059270725818,231630.7209161,231632.2024596,0,0.914914099994348,6
116,1,2,3,18,1.24361100205897,231633.1175029,231634.371479,0,1.02747190001537,4
117,1,1,2,13,1.27442432941676,231635.3990552,231636.6837059,0,2.3725138999871,5
118,1,2,1,15,1.98009963626061,231639.0563285,231641.0487216,0,0.999407600000268,4
119,1,1,6,18,1.20855348598501,231642.048248,231643.2681035,0,0.936133699986385,3
120,1,2,2,16,1.89507729264011,231644.2043492,231646.1109205,0,2.48626179998973,4
121,1,2,9,17,1.88529632382058,231648.597296,231650.4949378,0,0.889098200015724,6
122,1,1,9,16,1.32811974139766,231651.3841422,231652.7225711,0,1.0428562000161,6
123,1,2,8,1,1.29481452651361,231653.7655343,231655.072267,0,0.885227899998426,6
124,1,1,5,22,1.16785180182282,231655.9576264,231657.136356,0,1.82816669999738,5
125,1,2,7,14,1.80079839851813,231658.9645848,231660.7756813,0,2.9211692000099,6
126,1,1,1,13,1.49757734365175,231663.6969573,231665.2053724,0,2.03400869999314,4
127,1,2,8,20,1.08486784226392,231667.2394873,231668.3348528,0,1.35624199997983,6
128,1,2,6,16,1.08069082432986,231669.6912108,231670.7832523,0,0.528683300013654,5
129,1,2,8,19,1.86676903700868,231671.3121797,231673.1895318,0,2.4802897000045,5
130,1,2,6,21,1.71413151288919,231675.6699395,231677.3947652,0,1.12690199998906,5
131,1,1,9,22,1.59329470594509,231678.5217737,231680.1253069,0,1.19836979999673,6
132,1,1,2,15,1.37503616143378,231681.3237924,231682.7103167,0,1.85501040000236,4
133,1,1,1,18,1.84538006933865,231829.4133408,231831.2745227,0,1.87806230000569,4
134,1,2,5,15,1.16772647467392,231833.154893,231834.3325619,0,1.82990949999657,5
135,1,1,3,10,1.81734997997177,231836.1626051,231837.9918405,0,2.10380310000619,4
136,1,2,6,10,1.74623230923895,231840.0957518,231841.852644,0,3.60035860000062,5
137,1,2,8,10,1.52947863289895,231845.453142,231846.9927,0,0.636292999988655,6
138,1,2,1,14,1.6367180501754,231847.6291189,231849.2769673,0,1.3843959000078,4
139,1,1,3,8,1.42005099949365,231850.6614918,231852.0915847,0,2.13142999997945,4
140,1,1,9,13,1.04752632107714,231854.2231058,231855.2812356,0,0.984285499987891,6
141,1,1,2,1,1.20040196902581,231856.2656585,231857.4770933,0,1.29393479999271,4
142,1,2,5,3,1.82303300800604,231858.7711798,231860.6059968,0,0.876693600002909,5
143,1,2,5,17,1.51145500180453,231861.4828343,231863.0036075,0,1.10163469999679,5
144,1,1,3,12,1.50985751253931,231864.1053647,231865.6263249,0,1.36420260000159,5
145,1,1,8,12,1.82642984751512,231866.9905866,231868.8284272,0,0.83892849998665,6
146,1,1,8,18,1.14106444966126,231869.6674949,231870.819344,0,1.95612600000459,5
147,1,1,6,22,1.54442246224629,231872.7756332,231874.3311147,0,1.20473269998911,5
148,1,1,8,20,1.59137793986153,231875.535958,231877.1390651,0,0.843198799993843,6
149,1,2,4,16,1.39957247311212,231877.9823688,231879.3926515,0,1.73754559998633,5
150,1,2,1,8,1.53244772157528,231881.1303451,231882.6743614,0,0.881371000024956,4
151,1,1,1,8,1.87202344579765,231883.5558344,231885.4386663,0,0.714623899984872,4
152,1,1,8,16,1.8557228551829,231886.1533943,231888.0202508,0,1.82425330000115,6
153,1,1,8,17,1.97619518214757,231889.8446288,231891.8323079,0,1.33978919999208,6
154,1,1,2,2,1.33955031017527,231893.1721964,231894.5228863,0,1.10473490000004,4
155,1,2,2,12,1.12414417314449,231895.6277955,231896.7621904,0,1.22203389997594,5
156,1,1,3,3,1.59210755184846,231897.9843371,231899.5868644,0,1.35496910000802,4
157,1,2,1,21,1.23911870951871,231900.9425683,231902.1927294,0,0.789499100006651,4
158,1,2,1,9,1.07553872678824,231902.9823397,231904.0672412,0,1.97218169999542,3
159,1,1,9,9,1.26205464321479,231906.0395469,231907.3128651,0,1.78964600001927,6
160,1,1,6,4,1.34478185299106,231909.1025742,231910.4570962,0,2.47148979999474,5
161,1,2,9,18,1.78350016784242,231912.9286898,231914.7241187,0,0.940978900005575,6
162,1,1,5,5,1.43512146299082,231915.6652693,231917.1112309,0,0.760136600001715,6
163,1,1,2,11,1.38607291762418,231917.8715922,231919.2676995,0,1.89709189999849,4
164,1,1,7,8,1.40520092245347,231921.1649735,231922.5805069,0,0.919456400006311,6
165,1,2,4,2,1.51987724312199,231923.5000737,231925.0314313,0,0.829548899986548,5
166,1,1,1,15,1.90039429343815,231925.8612077,231927.7732963,0,1.11995809999644,4
167,1,2,1,10,1.41700841991771,231928.8933552,231930.321781,0,1.0589883000066,4
168,1,2,2,17,1.77195714636664,231931.3813543,231933.1621602,0,0.739172599976882,3
169,1,1,9,3,1.29120808893492,231933.9014525,231935.2045232,0,1.2383911999932,6
170,1,2,3,20,1.94437614931583,231936.4430264,231938.397972,0,2.16718659998151,4
171,1,1,4,15,1.34819258343763,231940.5652618,231941.9242464,0,0.707287799974438,5
172,1,1,7,15,1.81859908063884,231942.6316421,231944.4611314,0,0.527003099996364,6
173,1,1,9,6,1.92218627215871,231944.9882861,231946.9219693,0,0.517463099997258,7
174,1,2,4,17,1.20998842329492,231947.439555,231948.6609469,0,1.6004166000057,5
175,1,2,1,12,1.9274485542449,231950.2614954,231952.1985938,0,1.36465189998853,4
176,1,1,4,1,1.16880014704537,231953.5633498,231954.7425948,0,1.23689140001079,5
177,1,2,5,5,1.64217820384213,231955.9795932,231957.63368,0,1.13383609999437,5
178,1,1,2,3,1.05774781462245,231958.7681931,231959.8362076,0,1.36226480000187,4
179,1,1,9,18,1.21565407698407,231961.1986075,231962.4249465,0,1.13407470000675,6
180,1,2,6,20,1.6908360764822,231963.5591323,231965.260947,0,1.90167399999336,5
181,1,1,5,13,1.33463151626523,231967.1627342,231968.5076012,0,1.00502720000804,5
182,1,1,9,20,1.024757980231,231969.5127599,231970.5487161,0,1.34033530001761,6
183,1,1,3,16,1.33973264031354,231971.8891542,231973.2401665,0,1.00549599999795,5
184,1,1,6,11,1.29456562432127,231974.245776,231975.5518205,0,3.43665759998839,6
185,1,1,1,20,1.30713060398676,231978.9886053,231980.3068211,0,1.8234242000035,3
186,1,2,5,18,1.02966267840398,231982.1303504,231983.1698954,0,0.951646400004392,5
187,1,2,9,7,1.48057352355369,231984.1216469,231985.6128194,0,0.805497499997728,6
188,1,2,3,11,1.48652670582198,231986.4184276,231987.9158906,0,2.07460819999687,5
189,1,1,8,11,1.00311856676987,231989.9907382,231991.004382,0,1.00214899997809,6
190,1,2,7,18,1.79108647490512,231992.0085109,231993.8104125,0,1.40923310001381,5
191,1,1,8,7,1.04699264751962,231995.2199041,231996.2770268,0,0.983917800011113,6
192,1,2,6,3,1.27163722857822,231997.2615176,231998.5431364,0,1.128031500004,5
193,1,2,2,19,1.99454616271854,231999.6713248,232001.6782849,0,0.854984500008868,5
194,1,2,9,14,1.9448930532227,232002.5337499,232004.4912861,0,1.72001699998509,6
195,1,1,2,19,1.78637162669605,232006.2114069,232008.0094271,0,1.25760230000014,5
196,1,2,1,16,1.57842284475551,232009.2671626,232010.8558752,0,1.01785979999113,4
197,1,2,5,1,1.46961865248795,232011.8738663,232013.3546505,0,2.63662860001205,5
198,1,1,9,4,1.61598765338819,232015.991381,232017.622268,0,1.30095519998576,6
199,1,1,3,11,1.00098312599005,232018.9233276,232019.9348553,0,0.789484699984314,5
200,1,2,6,17,1.49420337655421,232020.7244459,232022.229711,0,1.61640970001463,5
201,1,1,3,9,1.8205112405415,232023.8462176,232025.6779376,0,1.03036629999406,4
202,1,1,7,10,1.04493196229584,232026.7084098,232027.7636528,0,2.87194720000844,6
203,1,2,5,19,1.94110265249149,232030.6357509,232032.5898838,0,2.79375249997247,5
204,1,1,5,3,1.37557821630533,232035.3837546,232036.7699955,0,1.14001969998935,5
205,1,2,4,6,1.47254028351808,232037.9101294,232039.3942148,0,2.79441939998651,5
206,1,2,2,10,1.34884782192839,232042.1887522,232043.5489626,0,2.71226609998848,4
207,1,2,4,1,1.9072824445436,232046.2613583,232048.1795393,0,3.67932160000782,5
208,1,2,4,9,1.95103268949714,232051.8589563,232053.8203819,0,1.28051579999737,5
209,1,1,9,11,1.347411046846,232055.1010049,232056.4594282,0,2.60420669999439,7
210,1,1,6,16,1.97113019751546,232059.0638014,232061.0470821,0,2.23480079998262,5
211,1,1,8,3,1.14164064165713,232063.2820028,232064.4340355,0,0.799182600021595,6
212,1,2,7,2,1.63209448421834,232065.2333348,232066.8758314,0,1.83901680001873,6
213,1,2,7,4,1.8028032664578,232068.7150581,232070.5286018,0,0.669466299994383,7
214,1,1,3,4,1.5838055755161,232071.1981838,232072.7923334,0,1.27043580001919,5
215,1,2,6,15,1.68687053196518,232074.0628513,232075.7593803,0,2.15596589999041,5
216,1,2,3,2,1.91305780980171,232077.9154618,232079.8400489,0,1.67291510000359,4
217,1,1,4,8,1.35869790174241,232081.5130934,232082.8824132,0,0.856951200024923,5
218,1,2,5,2,1.81593256667016,232083.7394309,232085.5655985,0,0.760744900006102,5
219,1,2,8,13,1.8136445214884,232086.3264542,232088.1512922,0,1.29747530000168,6
220,1,1,2,21,1.91627637942774,232089.4488829,232091.3758648,0,1.79593079999904,3
221,1,1,9,2,1.96121167922965,232093.1719349,232095.1447731,0,1.7390682999976,7
222,1,1,7,4,1.79200860687123,232096.8839565,232098.6875069,0,3.72513450001134,7
223,3,1,5,7,1.7775055638712,232102.4127627,232104.2007903,0,NaN,None
224,1,1,2,18,1.90294210982809,232108.2012524,232110.1148027,0,2.64071569999214,4
225,1,2,9,5,1.43425034801689,232112.7556184,232114.2009194,0,2.19323929998791,7
226,1,1,4,19,1.96646137911182,232116.3942912,232118.3711179,0,1.06427309999708,5
227,1,1,1,10,1.19575859526461,232119.4354923,232120.6415575,0,1.33434890001081,4
228,1,2,9,4,1.34262949841564,232121.9759698,232123.3285707,0,1.70629890001146,7
229,1,2,4,13,1.45837724406401,232125.0349675,232126.5040891,0,1.64223180001136,5
230,1,1,1,22,1.02506761347154,232128.1464357,232129.1835441,0,1.23450059999595,3
231,1,2,5,14,1.99361028549285,232130.418141,232132.4243878,0,0.770341299998108,5
232,1,1,1,6,1.13552659029829,232133.1948329,232134.3412006,0,1.07503549999092,5
233,1,1,5,18,1.60199980950602,232135.4163721,232137.0305521,0,1.7575190999778,5
234,1,1,7,6,1.32459561656009,232138.788191,232140.1240347,0,1.67124349999358,6
235,1,1,8,22,1.29360054751056,232141.7953975,232143.0993614,0,1.04215079999994,6
236,1,2,7,19,1.69259616593357,232144.1416063,232145.844208,0,1.14941179999732,5
237,1,1,6,20,1.99755038844104,232146.9937284,232149.0031591,0,1.962611200026,5
238,1,1,3,7,1.46075716106941,232150.9659122,232152.4373489,0,2.54641559999436,5
239,1,2,3,3,1.75491536931,232154.983885,232156.7504075,0,0.994908799999394,4
240,1,2,3,13,1.71380525002984,232157.7454162,232159.4708351,0,0.971104500000365,7
241,1,2,1,1,1.19307685307105,232160.4420733,232161.6461447,0,3.64491949998774,3
242,1,1,2,9,1.51710576172408,232165.2911809,232166.819791,0,1.81735870000557,4
243,1,1,4,21,1.32421974864525,232168.637284,232169.973014,0,2.52168030000757,5
244,1,2,9,20,1.22908161967148,232172.4947995,232173.7355662,0,1.72156930001802,6
245,1,1,4,17,1.06294699765564,232175.4572452,232176.5304148,0,1.64844639998046,5
246,1,1,5,2,1.20114301162955,232178.1789726,232179.3908754,0,0.95519510001759,5
247,1,2,8,4,1.29547595105827,232180.3462139,232181.6527473,0,1.94951360000414,7
248,1,2,2,13,1.89057707234626,232183.6023832,232185.5028704,0,1.66156919999048,5
249,1,1,5,12,1.59426121142395,232187.1645554,232188.7699822,0,0.700767200003611,5
250,1,2,9,2,1.7212032373525,232189.4708116,232191.2017563,0,2.73241349999444,7
251,1,1,6,7,1.76568694694049,232193.9342847,232195.711566,0,0.794118299992988,5
252,1,2,6,7,1.71167815746918,232196.5058202,232198.2285605,0,0.703790700004902,5
253,1,2,3,7,1.8289632890601,232198.9324496,232200.7719951,0,1.20732260000659,4
254,1,2,6,18,1.1492054084487,232201.9794255,232203.1384561,0,0.892468200006988,5
255,1,1,8,21,1.65215922837381,232204.0310557,232205.6939016,0,1.20862690001377,6
256,1,2,5,21,1.80783613753318,232206.9026557,232208.72093,0,1.44352040000376,5
257,1,2,7,17,1.23852113741322,232210.1645108,232211.4128491,0,2.22887800002354,5
258,1,1,1,9,1.00960360171251,232213.6417994,232214.6617869,0,2.27194320000126,3
259,1,2,8,7,1.60946231448967,232216.9338523,232218.55343,0,1.58746079998673,6
260,1,1,5,14,1.94303317200688,232220.1410299,232222.0951354,0,0.867482399975415,5
261,1,1,2,4,1.36373591628874,232222.9627552,232224.3370106,0,2.27287640000577,5
262,1,2,1,6,1.42410144704636,232226.6100059,232228.0440244,0,1.26865290000569,5
263,1,2,3,4,1.20594246245698,232229.3129005,232230.5297022,0,0.913387600012356,5
264,1,2,2,20,1.41145730154766,232231.4431869,232232.8654993,0,1.92495429998962,3
265,1,1,3,17,1.08071811351844,232388.5218209,232389.6163934,0,2.00392869999632,4
266,1,2,5,10,1.23236484613486,232391.6204345,232392.8632016,0,0.698181599989766,5
267,1,1,4,9,1.0727040548443,232393.5614813,232394.6453089,0,1.60314929997548,5
268,1,1,2,10,1.78952927639157,232396.248587,232398.0485902,0,3.04294489999302,4
269,1,1,4,12,1.54803825387348,232401.0916373,232402.6502136,0,1.40393670002231,5
270,1,2,8,2,1.3403633466446,232404.054572,232405.4066737,0,0.707892900012666,6
271,1,2,5,7,1.56162104365086,232406.1146611,232407.6868511,0,1.8354383999831,5
272,1,2,4,21,1.86698726251618,232409.5223916,232411.4040757,0,1.42493370000739,5
273,1,1,7,3,1.39389451964215,232412.8291174,232414.2330471,0,1.08733570002369,5
274,1,2,9,1,1.6021204229161,232415.3205051,232416.9345705,0,1.42252680001548,7
275,1,2,2,22,1.8155540861592,232418.3572147,232420.1848688,0,1.41985950001981,3
276,1,1,1,2,1.50273882147761,232421.6048286,232423.119289,0,2.14230959999259,4
277,1,1,2,7,1.34189608197018,232425.2616969,232426.6146942,0,1.33845690000453,4
278,1,1,3,5,1.96076833087069,232427.9532602,232429.9251063,0,2.0909259999753,5
279,1,2,3,12,1.50109527561833,232432.016146,232433.5287933,0,2.47441520000575,5
280,1,2,4,14,1.58730072255957,232436.0033296,232437.6020091,0,1.04319460000261,5
281,1,2,4,4,1.46780815904143,232438.6453061,232440.1237063,0,2.20873310000752,5
282,1,2,7,13,1.56403348570482,232442.3325399,232443.9072824,0,3.98353930001031,5
283,1,1,2,17,1.77501123000514,232447.8909487,232449.6770439,0,1.27587499999208,4
284,1,1,5,21,1.00351447958412,232450.9530339,232451.9685902,0,0.955403100000694,5
285,1,2,9,21,1.75792720858754,232452.9240543,232454.6926045,0,1.50350960000651,6
286,1,1,2,5,1.6640720914825,232456.1963161,232457.8719349,0,2.05686039998545,5
287,1,1,7,1,1.70252930952491,232459.9289489,232461.6436615,0,1.54713679998531,6
288,1,2,8,21,1.95124926861997,232463.1909128,232465.1544243,0,0.778221899992786,6
289,1,2,9,11,1.89433220753915,232465.9327554,232467.8385017,0,3.45752470000298,7
290,1,1,5,8,1.13671840904786,232471.2961517,232472.4444277,0,0.667827000026591,6
291,1,1,5,10,1.45651160411436,232473.1123526,232474.5794088,0,0.599441500002285,5
292,1,2,5,13,1.64478315993358,232475.178971,232476.8357463,0,0.710009900009027,5
293,1,1,7,12,1.02226508481116,232477.5458157,232478.578205,0,0.694053300016094,5
294,1,2,9,9,1.84187791052331,232479.2723509,232481.1253151,0,1.93424239999149,7
295,1,2,2,6,1.24717040627545,232483.0597101,232484.3186427,0,1.22210879999329,5
296,1,1,1,12,1.22865910178472,232485.5408072,232486.7806458,0,1.41634779999731,4
297,1,2,3,8,1.30700091046616,232488.1971221,232489.5153496,0,1.66366409999318,5
298,1,2,3,14,1.85369638871297,232491.1791178,232493.0435121,0,0.871938600001158,5
299,1,2,6,8,1.23441552215138,232493.91557,232495.1604639,0,1.13669229997322,5
300,1,2,1,5,1.43443286925404,232496.2972754,232497.7423937,0,2.47219420000329,4
301,1,2,9,15,1.40898053315497,232500.2146914,232501.6339655,0,1.99758819999988,7
302,1,1,4,3,1.58103748630352,232503.6316087,232505.2230644,0,1.02036399999633,5
303,1,1,7,21,1.27799720659822,232506.2435617,232507.5319123,0,3.22435959998984,6
304,1,1,6,10,1.43545536129943,232510.7565973,232512.2036541,0,2.65538499999093,6
305,1,1,9,7,1.0001593855778,232514.8591391,232515.8698641,0,0.758584700000938,6
306,1,2,8,16,1.37865570468972,232516.6285753,232518.0192314,0,0.706972200016025,6
307,1,2,8,9,1.43185329054932,232518.7262998,232520.1691287,0,0.668679399997927,7
308,1,1,5,4,1.67165868882563,232520.8379256,232522.5212694,0,1.6085282000131,5
309,1,1,7,16,1.71961514646728,232524.1299366,232525.8601975,0,3.22811809999985,5
310,1,2,9,16,1.030409107016,232529.0884629,232530.1289899,0,0.770353400002932,6
311,1,1,1,5,1.87971398299903,232530.8994498,232532.7901183,0,2.08688570000231,4
312,1,2,4,18,1.71270341243903,232534.8771313,232536.6021853,0,1.4715431999939,4
313,1,1,6,12,1.90242589334436,232538.0738515,232539.9883992,0,0.972324500005925,5
314,1,2,5,16,1.74086582677683,232540.9608505,232542.7124634,0,1.24008099999628,5
315,1,2,4,19,1.96785669303819,232543.952645,232545.9305757,0,0.788920099992538,5
316,1,1,9,5,1.26265779579897,232546.7196251,232547.9929016,0,1.35933730000397,7
317,1,2,1,7,1.50851517402982,232549.352298,232550.8707934,0,1.38239739998244,4
318,1,2,6,5,1.15681773737604,232552.2533155,232553.4212826,0,1.14389159998973,5
319,1,2,1,13,1.15049898785334,232554.5652607,232555.7269881,0,1.95495869999286,4
320,1,1,6,17,1.11482185933144,232557.6820766,232558.8074142,0,0.710574099997757,5
321,1,1,7,7,1.94562585202016,232559.5181047,232561.4753444,0,1.18509049998829,5
322,1,1,6,13,1.83622625967472,232562.6606206,232564.5089736,0,0.937982000003103,5
323,1,1,4,13,1.69377635759372,232565.4470122,232567.1521827,0,0.606325800006744,5
324,1,1,1,3,1.69095867697456,232567.7586034,232569.4608627,0,1.42862709998735,4
325,1,1,9,12,1.83805412247225,232570.8896034,232572.7405506,0,1.09368859999813,6
326,1,2,2,11,1.94500112750216,232573.8343577,232575.7903197,0,1.26470359999803,4
327,1,1,2,12,1.46144319009293,232577.0551712,232578.5284442,0,3.76501780000399,5
328,1,2,4,15,1.95615364901034,232582.2935896,232584.2604179,0,0.844689400022617,5
329,1,2,1,3,1.97157978903368,232585.1052359,232587.0867809,0,1.10546740001882,4
330,1,1,5,20,1.6047528514347,232588.1923992,232589.8083305,0,1.3412788999849,5
331,1,1,1,14,1.24659862364933,232591.1497308,232592.4069068,0,1.42939740000293,4
332,1,1,6,9,1.37525216051627,232593.8364349,232595.2214911,0,2.4033237999829,5
333,1,2,4,20,1.76495702061199,232597.624915,232599.4008148,0,2.66084440000122,5
334,1,1,3,1,1.91877440177529,232602.0617677,232603.9909467,0,1.47804580000229,4
335,1,1,6,5,1.30144089819878,232605.4690995,232606.7823429,0,1.20830269998987,5
336,1,2,9,13,1.51030234648577,232607.9907729,232609.5122103,0,1.14728080001078,6
337,1,2,3,15,1.13867528947789,232610.6595473,232611.8084649,0,2.1514769999776,5
338,1,2,6,14,1.95219756700152,232613.9600482,232615.9232437,0,1.02833549998468,5
339,1,2,2,14,1.49569797025927,232616.951682,232618.458419,0,2.22569180000573,4
340,1,1,2,8,1.24574278309633,232620.6842243,232621.9409874,0,0.784106999984942,4
341,1,2,7,16,1.18867801016103,232622.7251923,232623.9261793,0,1.01058659999399,6
342,1,2,3,22,1.33909489900838,232624.9368636,232626.2877772,0,1.90127299999585,4
343,1,2,1,19,1.6614405230761,232628.1892633,232629.8618986,0,2.36971249998896,5
344,1,2,5,11,1.8078500801598,232632.2317254,232634.0503262,0,0.862935400014976,5
345,1,2,8,18,1.56979676241919,232634.9133706,232636.4934935,0,0.90660410001874,6
346,1,2,7,7,1.13576977215143,232637.4002096,232638.5467925,0,0.769684999977471,6
347,1,1,8,19,1.15855329163177,232639.316578,232640.486931,0,0.515498699998716,6
348,1,2,3,9,1.83438960059173,232641.0025343,232642.8468494,0,1.87290489999577,5
349,1,2,7,21,1.9190274640469,232644.7198679,232646.6511946,0,1.21094959997572,6
350,1,1,1,19,1.81841928884725,232647.8622423,232649.6934606,0,0.735337599995546,5
351,1,1,1,7,1.86357784720926,232650.4288952,232652.3034188,0,2.94874479999999,4
352,1,1,9,14,1.72452970053892,232655.2523113,232656.9882761,0,1.94616859999951,6
353,1,1,3,14,1.7983864779843,232658.9345495,232660.7451437,0,0.700726099981694,5
354,1,1,5,1,1.96375425646336,232661.4459711,232663.4198627,0,1.94831150001846,5
355,1,1,2,14,1.73756323446548,232665.3682852,232667.1153124,0,1.8401343000005,5
356,1,2,8,3,1.68402257460643,232668.9555491,232670.6518522,0,1.96219059999567,6
357,1,1,4,16,1.34236289174205,232672.6141807,232673.9663094,0,1.41322789998958,5
358,1,1,9,8,1.25797135491085,232675.3796053,232676.6489401,0,3.34891119998065,6
359,1,1,4,5,1.91817214434319,232679.9979719,232681.9278671,0,0.832143900013762,5
360,1,2,7,15,1.21491505867314,232682.760154,232683.9860461,0,0.706396800000221,6
361,1,2,2,2,1.23247366392512,232684.6925754,232685.9349077,0,1.95849980000639,4
362,1,2,3,10,1.31686440399412,232687.893526,232689.2212498,0,1.99002820000169,5
363,1,1,7,14,1.44327180686789,232691.2113941,232692.6661187,0,0.967343399999663,6
364,1,2,5,12,1.13906117551397,232693.6335614,232694.7821114,0,1.01689109997824,5
365,1,1,7,11,1.50037080614179,232695.7990878,232697.3096478,0,0.75623510000878,7
366,1,2,7,8,1.88224983218911,232698.0659961,232699.9591785,0,1.65425510000205,6
367,1,1,5,11,1.9151732053117,232701.6135325,232703.5385896,0,1.80774980000569,5
368,1,1,7,18,1.51205256215309,232705.3464686,232706.869327,0,0.774824599997373,5
369,1,2,2,7,1.72497459848383,232707.6443521,232709.3795314,0,0.770340400020359,4
370,1,2,3,5,1.08922607255966,232710.1499739,232711.2502917,0,1.36110729997745,4
371,1,1,5,19,1.50255143714212,232712.6115176,232714.1245258,0,0.943892999988748,5
372,1,2,3,17,1.99713095653729,232715.068554,232717.0785853,0,0.861523300001863,4
373,1,1,9,17,1.44605315267391,232717.9402253,232719.3969425,0,1.60004720001598,6
374,1,2,2,9,1.83893686447193,232720.9971246,232722.846591,0,1.93328480000491,4
375,1,1,6,6,1.28296411363047,232724.7799924,232726.0735735,0,0.767348900000798,5
376,1,2,2,3,1.02226348482081,232726.8410562,232727.8738689,0,1.29346879999503,4
377,1,1,8,2,1.77372483050856,232729.1674369,232730.9518627,0,1.59778989999904,6
378,1,1,5,16,1.38988277986238,232732.5497957,232733.9497173,0,0.752319899998838,5
379,1,2,3,19,1.02697408676429,232734.702142,232735.7401634,0,2.44839819998015,5
380,1,2,5,22,1.39388295636876,232738.1886851,232739.5934173,0,0.621392700006254,5
381,1,1,7,2,1.22019250359656,232740.2149422,232741.4458243,0,2.20714010001393,5
382,1,1,4,14,1.37703624854628,232743.6530742,232745.0401798,0,0.639123599976301,5
383,1,1,8,1,1.8529739099664,232745.6794306,232747.5437979,0,1.29164360000868,6
384,1,1,9,1,1.69801235455342,232748.8355615,232750.5450275,0,0.716847800009418,6
385,1,1,4,18,1.14917524612113,232751.262013,232752.4216181,0,1.49822420001146,5
386,1,1,8,8,1.46603744366883,232753.9199851,232755.3963209,0,0.824052999989362,6
387,1,1,6,19,1.45414122847661,232756.2205005,232757.6851469,0,1.56211699999403,5
388,1,1,3,13,1.96659636193652,232759.2473744,232761.2246771,0,0.709275300003355,5
389,1,2,5,9,1.95691223929024,232761.9340611,232763.9023342,0,0.598827500012703,5
390,1,1,1,16,1.23861367319112,232764.5012934,232765.7506592,0,0.887069199990947,4
391,1,2,3,21,1.14296155735741,232766.6378522,232767.7917357,0,1.67334479998681,4
392,1,2,7,1,1.53602941228475,232769.4651823,232771.0116225,0,2.19065140001476,6
393,1,2,2,4,1.10408317477879,232773.2023764,232774.3178264,0,1.05194160001702,5
394,1,1,4,20,1.22247731572649,232775.3698946,232776.6033105,0,0.751807599997846,5
395,1,2,8,14,1.95000471698155,232777.355246,232779.3162433,0,2.52732569997897,6
396,1,1,2,6,1.72136448554079,232781.843704,232783.5761889,0,1.15009229999851,5
