ID,State,Position ID,Morph Step,Face Person,ITI,Trial_Onset,Stim_Onset,Stim_Offset,RT,Answer
1,1,1,2,17,1.11734994610377,682756.1125372,682757.2583444,0,1.29042490001302,1
2,1,1,3,9,1.49431016754865,682758.5508914,682760.0720778,0,1.43654089991469,3
3,1,2,6,9,1.8649915289897,682761.5098154,682763.4006961,0,1.34793609997723,5
4,1,2,1,22,1.61130079431115,682764.748959,682766.3858174,0,0.794791500084102,1
5,1,2,2,2,1.2520377066971,682767.1818608,682768.4588027,0,1.60451549990103,4
6,1,1,7,22,1.0892581467904,682770.0634318,682771.1766581,0,1.42796300002374,7
7,1,1,7,9,1.4419142395778,682772.6048742,682774.0701192,0,1.62261389999185,7
8,1,2,7,13,1.03805427978994,682775.6927818,682776.7524069,0,1.31621459999587,6
9,1,2,9,21,1.1208602713602,682778.0686671,682779.2157912,0,1.11674440000206,8
10,1,2,6,6,1.60838213415177,682780.3326251,682781.968624,0,1.3319886000827,6
11,1,2,6,11,1.50853546805949,682783.3007197,682784.8308087,0,1.21373580000363,6
12,1,2,8,12,1.37518105407351,682786.04459,682787.4411783,0,1.14741660002619,8
13,1,1,6,19,1.78376002800797,682788.5887005,682790.4016861,0,1.65095239994116,5
14,1,1,9,5,1.93206329828928,682792.0526855,682794.0081046,0,1.39665989996865,9
15,1,1,3,1,1.39857762282981,682795.4048123,682796.8223187,0,1.35043470002711,4
16,1,2,6,22,1.46701983284938,682798.1727988,682799.6650367,0,2.45936750003602,6
17,1,2,5,19,1.23312222696909,682802.1244736,682803.3844419,0,1.3377742000157,5
18,1,2,2,17,1.28528670817784,682804.7222601,682806.0275278,0,1.18263690010644,2
19,1,1,2,9,1.68492771140827,682807.2102229,682808.9184653,0,0.84600290004164,1
20,1,2,2,20,1.85482255929456,682809.7645343,682811.6448504,0,0.847784999990836,1
21,1,2,3,16,1.61543897421911,682812.4926844,682814.1318295,0,1.29402410006151,4
22,1,1,6,5,1.7051144503972,682815.4259492,682817.1549087,0,1.44957329996396,7
23,1,1,6,10,1.41792794258002,682818.6045544,682820.0424314,0,1.29988269996829,6
24,1,2,9,4,1.88539075310438,682821.3423586,682823.2523101,0,1.15237849997357,9
25,1,2,1,16,1.12547175345098,682824.404736,682825.5540776,0,1.25046979996841,3
26,1,2,9,2,1.42284266312107,682826.8046426,682828.2493254,0,1.68315799999982,8
27,1,1,4,21,1.64145207428328,682829.9325299,682831.5993755,0,1.62909469997976,4
28,1,1,4,19,1.2896964293354,682833.2285139,682834.5395714,0,1.19286680000369,5
29,1,2,8,13,1.96805473386125,682835.732482,682837.7287219,0,0.99577469995711,8
30,1,1,3,8,1.25147723114912,682838.7245412,682839.9989828,0,1.93345439992845,3
31,1,2,7,4,1.7171277668113,682841.9324825,682843.6761393,0,1.08848320005927,8
32,1,1,1,8,1.31037369312116,682844.764669,682846.1001423,0,2.15216950001195,2
33,1,2,7,12,1.0158390420133,682848.2523849,682849.2963061,0,1.40416410006583,7
34,1,1,4,13,1.34602155945123,682850.7005176,682852.0720581,0,1.63645360001829,6
35,1,1,5,7,1.35130902219682,682853.7085587,682855.0815815,0,1.2668854999356,5
36,1,2,7,20,1.15944279346741,682856.3485161,682857.5307087,0,1.62618520006072,7
37,1,2,1,10,1.02800857665296,682859.156991,682860.211454,0,1.32922660000622,3
38,1,2,6,16,1.79554373694673,682861.5407273,682863.3579146,0,1.49465539993253,6
39,1,2,4,10,1.59693054068373,682864.8526158,682866.4749189,0,1.15367839997634,5
40,1,2,2,7,1.24408901081693,682867.6286431,682868.9003044,0,1.54425669996999,3
41,1,2,8,2,1.08211222455194,682870.4446296,682871.5527106,0,1.2839946000604,7
42,1,2,4,2,1.93189368911286,682872.8367503,682874.7919801,0,1.0686168000102,5
43,1,2,3,3,1.6217737263398,682875.8606424,682877.5061347,0,1.41844509996008,3
44,1,1,6,21,1.69250833409734,682878.9246263,682880.6417011,0,2.47488919994794,6
45,1,2,7,22,1.30496944825966,682883.1166369,682884.4485183,0,2.57226440007798,6
46,1,2,1,6,1.59101605343581,682887.0208309,682888.6335632,0,1.443129900028,2
47,1,1,2,6,1.14996502507754,682890.0767414,682891.2497938,0,0.778851500013843,2
48,1,1,2,12,1.76472292570854,682892.0286932,682893.8174444,0,0.987232199986465,1
49,1,1,4,2,1.73713156346543,682894.8047238,682896.5669509,0,1.26173369993921,5
50,1,1,2,21,1.6684881054994,682897.8287299,682899.5187904,0,1.21377270005178,1
51,1,1,1,6,1.98201764185155,682900.7327225,682902.7403634,0,1.98424330004491,2
52,1,2,4,3,1.13667220089447,682904.7246526,682905.8869576,0,1.45361079997383,5
53,1,1,9,16,1.59911611468891,682907.3406143,682908.9643897,0,1.15207020007074,8
54,1,1,1,21,1.14160933358024,682910.1165276,682911.2863131,0,1.15036500000861,2
55,1,1,6,4,1.9750718021305,682912.4367244,682914.4330545,0,2.40372499998193,7
56,1,1,9,8,1.24612357135546,682916.8368274,682918.1066599,0,0.857694100006483,9
57,1,1,3,20,1.65568111389953,682918.9643997,682920.640542,0,1.36462470004335,1
58,1,1,9,15,1.63510641683715,682922.0052569,682923.6658103,0,1.0241251999978,9
59,1,1,6,13,1.88945244478997,682924.6899922,682926.6011288,0,1.41790080000646,5
60,1,1,2,4,1.46772297192527,682928.0197187,682929.5087691,0,1.34382070007268,2
61,1,1,5,21,1.86702787870187,682930.8526396,682932.7437186,0,1.44554660003632,5
62,1,1,2,15,1.06947545980051,682934.1893785,682935.2837427,0,1.10908460000064,9
63,1,1,6,9,1.86570156314517,682936.3929835,682938.2822287,0,1.40767949994188,5
64,1,1,7,13,1.85034777413907,682939.6899989,682941.5643569,0,1.13626869989093,7
65,1,1,9,3,1.95307395981482,682942.7006729,682944.6788571,0,1.27981850004289,8
66,1,1,4,7,1.96508004573003,682945.9587208,682947.9469089,0,1.20172789995559,5
67,1,2,4,4,1.43851226121369,682949.1486818,682950.604762,0,1.16779500001576,5
68,1,2,2,11,1.21750448738439,682951.7726049,682953.0121674,0,1.69691419997253,6
69,1,1,1,11,1.56712256682538,682954.7091319,682956.3012195,0,1.27149529999588,3
70,1,1,8,10,1.06302225598321,682957.572762,682958.6596253,0,1.40096070000436,7
71,1,1,1,10,1.73132485516342,682960.0606326,682961.8135511,0,1.21499390003737,2
72,1,1,4,15,1.82182290085291,682963.0285896,682964.8741442,0,1.88250119995791,4
73,1,1,9,1,1.15413568589954,682966.7566918,682967.9356106,0,1.20491259999108,9
74,1,1,3,4,1.18449524622397,682969.1406168,682970.3465721,0,1.41788379999343,4
75,1,2,9,8,1.43681839728839,682971.7645049,682973.2249888,0,1.47552750003524,9
76,1,2,5,22,1.19755853611547,682974.7005623,682975.9230289,0,1.43360339989886,4
77,1,2,2,6,1.59430838880788,682977.3567016,682978.9776162,0,1.76338640006725,4
78,1,2,6,5,1.61187978126596,682980.7411109,682982.3768153,0,1.56367439997848,6
79,1,1,9,7,1.20209241962987,682983.9405571,682985.1638987,0,1.23283509991597,8
80,1,2,3,2,1.95821021125459,682986.3967859,682988.3797498,0,1.34481630008668,3
81,1,1,8,19,1.26198208578184,682989.724645,682991.0105684,0,2.27409149997402,7
82,1,1,8,15,1.72358812553703,682993.2847097,682995.030307,0,0.910423399996944,9
83,1,1,3,21,1.36580474597586,682995.9407775,682997.3318865,0,1.76079880003817,2
84,1,1,5,3,1.4380776433021,682999.0927318,683000.5497945,0,1.31920150003862,5
85,1,2,1,21,1.01769841373009,683001.8690434,683002.9108879,0,1.56585249991622,2
86,1,1,7,5,1.22106051094951,683004.4767854,683005.7191792,0,1.49356890004128,8
87,1,1,6,16,1.97737950428854,683007.2127941,683009.2127493,0,1.56000810000114,6
88,1,2,1,5,1.27015219465153,683010.7728066,683012.0654846,0,1.88326189992949,2
89,1,1,2,7,1.23312488648919,683013.9487916,683015.2089669,0,0.819660700042732,1
90,1,2,8,17,1.82985794514394,683016.0286741,683017.884374,0,1.11237220000476,9
91,1,2,8,11,1.38994433760055,683018.9967923,683020.4139206,0,1.02277380006853,9
92,1,2,6,13,1.21976016151118,683021.4367412,683022.680834,0,1.82787639996968,6
93,1,2,3,10,1.96417765860823,683024.5087564,683026.4994192,0,1.18640200002119,4
94,1,2,7,14,1.18364747690399,683027.6862686,683028.8911698,0,1.18559990008362,7
95,1,2,7,7,1.60825696988425,683030.0768203,683031.709075,0,1.69571090000682,6
96,1,2,2,16,1.38077157456464,683033.4048311,683034.8066549,0,1.50993260007817,2
97,1,2,7,21,1.69894687110417,683036.3166536,683038.0402328,0,1.06839140004013,7
98,1,1,9,2,1.56729072414399,683039.1086759,683040.6999551,0,0.880652400082909,9
99,1,1,5,18,1.53766685437186,683041.5806525,683043.1430173,0,1.15769039990846,5
100,1,1,8,14,1.53780288995335,683044.3007541,683045.8631678,0,1.04182759998366,9
101,1,2,4,21,1.7942666850474,683046.9051429,683048.7241426,0,2.01651350001339,3
102,1,1,8,7,1.69050546760452,683050.7407032,683052.4570144,0,1.37164799997117,7
103,1,1,2,10,1.10122749221849,683053.8287085,683054.9543091,0,2.66635909990873,2
104,1,1,4,1,1.12543277641357,683057.6207328,683058.772256,0,1.74485510005616,5
105,1,2,8,18,1.02352201502626,683060.5171794,683061.5652835,0,2.42895640002098,8
106,1,1,2,2,1.28286862068785,683063.9943466,683065.298766,0,0.889845300000161,2
107,1,2,8,14,1.71288497700542,683066.1887011,683067.9261962,0,1.58248810004443,9
108,1,2,1,17,1.91422991675829,683069.5087333,683071.4480457,0,1.37273439997807,1
109,1,2,4,8,1.73632458342693,683072.8208273,683074.5819535,0,1.31862519995775,5
110,1,1,4,11,1.02177460652716,683075.900624,683076.9453412,0,1.15533970005345,5
111,1,1,2,18,1.09774587544631,683078.1007262,683079.2225324,0,1.14995569991879,2
112,1,2,4,13,1.51848346385811,683080.3725887,683081.9188428,0,1.54176150006242,5
113,1,2,5,1,1.69309111467129,683083.4606496,683085.1818282,0,1.15081270004157,5
114,1,2,9,17,1.09159513650019,683086.3326879,683087.4516504,0,1.12896530004218,9
115,1,2,8,6,1.67451860272874,683088.5806628,683090.2817175,0,0.842982000089251,9
116,1,1,9,9,1.30740071625045,683091.1247435,683092.4545402,0,0.758090900024399,9
117,1,2,1,15,1.46510439651631,683093.212678,683094.7032493,0,1.18165000004228,1
118,1,2,6,21,1.19141174469006,683095.8849847,683097.0959759,0,2.45280500000808,7
119,1,2,6,1,1.24731448475227,683099.5488263,683100.8150743,0,1.83771399990655,5
120,1,1,5,14,1.81468267480892,683102.6528349,683104.4893025,0,1.47539929999039,5
121,1,1,4,20,1.59579109002412,683105.9647499,683107.5880952,0,1.55249899998307,4
122,1,2,8,9,1.76060754012624,683109.1406628,683110.9259321,0,1.15865090000443,8
123,1,2,4,18,1.69011310636204,683112.084666,683113.7974337,0,1.33525610005017,5
124,1,2,5,4,1.93349097575411,683115.1327369,683117.090895,0,2.65794679999817,5
125,1,2,2,9,1.06724335892497,683119.7488864,683120.8444207,0,1.48839640000369,1
126,1,1,9,11,1.04536986065116,683122.3328629,683123.4033227,0,1.28143730002921,9
127,1,1,6,2,1.72018435168254,683124.6848071,683126.4295972,0,1.39114600000903,6
128,1,2,9,14,1.26672277790819,683127.8207901,683129.1115851,0,0.869235899997875,9
129,1,1,5,8,1.90026379450443,683129.9808734,683131.9076993,0,1.56111240002792,5
130,1,1,4,12,1.20757443539641,683133.4688591,683134.6944618,0,1.27829619997647,4
131,1,1,7,1,1.11198404005557,683135.9728022,683137.1054209,0,1.33941000001505,6
132,1,2,3,9,1.02146444506662,683138.444886,683139.4869781,0,1.2457697999198,1
133,1,1,7,11,1.08221073309136,683283.8564961,683284.96862,0,1.29247009998653,8
134,1,1,9,12,1.50673368268437,683286.2624741,683287.7919761,0,0.895686200005002,8
135,1,1,5,13,1.4884370286218,683288.6877155,683290.2010095,0,1.19442880002316,4
136,1,1,4,18,1.95495746634571,683291.3955286,683293.3748983,0,1.38225249992684,5
137,1,2,4,19,1.15069745437781,683294.7572278,683295.9296132,0,1.57260379998479,5
138,1,1,2,3,1.26677257430027,683297.5023542,683298.7907871,0,1.34193650004454,3
139,1,1,7,10,1.88635548127539,683300.1327733,683302.0432261,0,0.881466299993917,8
140,1,1,1,12,1.98174303243349,683302.9247385,683304.933588,0,0.95145109994337,1
141,1,1,1,4,1.81210424983421,683305.8850869,683307.7251421,0,1.16755459993146,2
142,1,2,3,22,1.61929456800581,683308.8927707,683310.5339654,0,0.96676690003369,1
143,1,1,1,20,1.80409097074258,683311.5007781,683313.3291169,0,0.739603800000623,1
144,1,1,3,16,1.95520449358595,683314.0687658,683316.0481032,0,1.31663289992139,3
145,1,1,6,1,1.1891456798798,683317.3647841,683318.5781401,0,1.3466154000489,6
146,1,2,2,19,1.31258125913122,683319.9248069,683321.2602976,0,1.35240279999562,3
147,1,1,1,1,1.87835297083463,683322.6127479,683324.5146965,0,1.27391599991824,1
148,1,2,7,19,1.30372951525594,683325.788687,683327.118899,0,0.950314600020647,8
149,1,1,8,1,1.60364014967229,683328.0692776,683329.6969597,0,0.771791300037876,8
150,1,1,7,19,1.89287180611732,683330.4687969,683332.3863532,0,0.858374200062826,8
151,1,1,1,14,1.77405393265362,683333.2447732,683335.0386755,0,0.878069600090384,1
152,1,1,5,9,1.46930307394484,683335.9167914,683337.4102459,0,1.86660389997996,5
153,1,2,6,7,1.37207974496541,683339.2768951,683340.6743259,0,1.24247599998489,6
154,1,1,1,15,1.60481306405292,683341.9168489,683343.5459358,0,0.770749500021338,1
155,1,1,8,6,1.63447108268435,683344.3167458,683345.9734778,0,0.983319599996321,8
156,1,2,6,15,1.74191102432431,683346.9568444,683348.720024,0,1.50872779998463,7
157,1,2,4,1,1.62287644963298,683350.2288386,683351.8760729,0,1.45674039993901,5
158,1,2,3,17,1.54177459542921,683353.3328596,683354.8957838,0,1.35366079991218,3
159,1,2,6,3,1.53110450200998,683356.2495446,683357.8026876,0,1.61011779995169,6
160,1,1,5,22,1.41720628350108,683359.4128548,683360.8540573,0,1.29533180000726,5
161,1,1,9,19,1.90498163539421,683362.1494752,683364.0819261,0,1.87493060005363,7
162,1,2,5,11,1.31879255941516,683365.9569066,683367.2914681,0,1.41748219996225,6
163,1,2,1,11,1.79038788169797,683368.7089969,683370.5249179,0,1.90398309996817,2
164,1,2,9,5,1.26619607446557,683372.4289477,683373.7195045,0,1.50157879991457,9
165,1,2,8,7,1.99107354822008,683375.2211309,683377.2369373,0,1.12791760009713,8
166,1,1,8,11,1.12862089217948,683378.3649027,683379.5175777,0,0.959381100023165,8
167,1,1,3,7,1.01543407171779,683380.4770057,683381.5109668,0,1.19800009997562,3
168,1,1,9,17,1.96569619794955,683382.7090132,683384.6992041,0,1.4896334001096,9
169,1,1,5,2,1.8114095244553,683386.1888825,683388.0255751,0,1.16337790002581,5
170,1,1,6,22,1.7502513486778,683389.1889997,683390.9645128,0,1.90440820006188,6
171,1,1,5,1,1.64985034239946,683392.8689681,683394.5393684,0,1.79362520005088,5
172,1,2,2,1,1.51086670074515,683396.3330388,683397.8644499,0,0.932409000000916,2
173,1,2,3,11,1.99675533386523,683398.7969045,683400.814883,0,1.13406199996825,3
174,1,1,7,18,1.4445114368588,683401.949014,683403.4188447,0,3.41620259999763,6
175,1,1,8,16,1.56483030997965,683406.8351443,683408.424461,0,1.4122460000217,7
176,1,1,9,22,1.47000058362609,683409.8367939,683411.3356693,0,1.82928189996164,8
177,1,1,1,7,1.10832068560733,683413.1649965,683414.3013453,0,0.911517299944535,1
178,1,2,2,3,1.67632750889171,683415.212908,683416.9144802,0,1.71017129998654,2
179,1,2,3,8,1.87590051955648,683418.624809,683420.5210262,0,3.38792319991626,3
180,1,2,4,16,1.98863322271666,683423.9089941,683425.9192959,0,1.40561369992793,5
181,1,1,9,4,1.48287588680009,683427.3249558,683428.832191,0,0.924677200033329,9
182,1,2,4,6,1.96289802902881,683429.7569145,683431.7450025,0,1.61979140003677,5
183,1,2,4,7,1.41381080279602,683433.3648438,683434.7993344,0,1.37351990002207,5
184,1,1,8,2,1.94492452548762,683436.1729016,683438.1419125,0,1.52709220000543,6
185,1,2,4,22,1.42026007082653,683439.6690516,683441.1112793,0,2.18169360002503,4
186,1,1,4,8,1.84187456300795,683443.2930209,683445.1564535,0,1.73670110001694,5
187,1,1,3,17,1.96403475848574,683446.8932008,683448.8846055,0,2.48829080001451,4
188,1,1,8,18,1.4951544337576,683451.3729445,683452.8900682,0,1.45060940005351,6
189,1,1,7,3,1.44401472646673,683454.3407399,683455.8129781,0,1.35981759999413,6
190,1,2,4,12,1.94931683629437,683457.1728801,683459.1442737,0,1.78086850000545,5
191,1,2,9,3,1.92492574055163,683460.9251907,683462.8739643,0,1.49916749994736,6
192,1,2,8,22,1.76630958249445,683464.3731836,683466.1600023,0,1.35700189997442,7
193,1,1,5,11,1.59458568166073,683467.517053,683469.1391681,0,1.27382550004404,5
194,1,1,1,13,1.18288133870809,683470.4130452,683471.6178844,0,1.31561460008379,7
195,1,2,7,5,1.70416117082263,683472.9335482,683474.6636667,0,1.78938580001704,6
196,1,2,5,5,1.73891643040673,683476.4531003,683478.2155059,0,1.13349779997952,5
197,1,1,1,18,1.95560514419917,683479.3490513,683481.3289989,0,2.45175529993139,2
198,1,1,8,9,1.25019607943634,683483.7808268,683485.042843,0,1.35405019996688,8
199,1,2,6,10,1.22603694534849,683486.3969421,683487.6457903,0,1.23911429999862,6
200,1,1,5,15,1.9771397979014,683488.8849507,683490.8858108,0,1.87921369995456,5
201,1,1,3,2,1.62837820808033,683492.7650718,683494.4181166,0,1.36290259996895,3
202,1,2,7,10,1.72309511649756,683495.7810671,683497.5270868,0,1.42990860005375,7
203,1,2,2,21,1.5012405519883,683498.9570415,683500.4819832,0,1.27505660010502,1
204,1,2,5,2,1.80417814688177,683501.7570854,683503.5831808,0,1.12573550001252,5
205,1,1,2,19,1.22239318889713,683504.7089621,683505.9585264,0,1.53436039993539,4
206,1,1,8,12,1.46674785773267,683507.4931648,683508.9828688,0,1.57412119989749,6
207,1,2,2,13,1.79475010002011,683510.5570605,683512.3751422,0,1.45373219996691,2
208,1,1,6,8,1.33029172394022,683513.8289562,683515.1832309,0,1.28578400006518,6
209,1,2,9,1,1.13297532742042,683516.4690619,683517.6320179,0,1.31325400003698,8
210,1,1,4,5,1.20031757568894,683518.9453646,683520.1645583,0,1.56816679995973,5
211,1,1,5,4,1.23527695885293,683521.732796,683522.992629,0,2.06833679997362,5
212,1,1,1,16,1.29323929085621,683525.0610125,683526.3796646,0,1.13824250001926,2
213,1,2,4,15,1.40575871582035,683527.5179513,683528.9503424,0,1.38261610001791,5
214,1,2,1,18,1.47846430083564,683530.3330044,683531.8359776,0,1.13697670004331,2
215,1,2,8,1,1.93115258542763,683532.9730283,683534.9315621,0,1.32944030000363,8
216,1,2,7,17,1.93490249031767,683536.2611092,683538.2203426,0,2.52864369994495,8
217,1,1,3,15,1.39452284650533,683540.7490328,683542.1694478,0,0.912563899997622,1
218,1,1,2,22,1.44080432104972,683543.0820555,683544.5440043,0,0.84501549997367,1
219,1,1,8,22,1.87927555732685,683545.3892287,683547.2931507,0,1.2241015000036,9
220,1,2,8,10,1.65828976198304,683548.5173018,683550.199967,0,0.916773299919441,9
221,1,1,3,14,1.31109993032771,683551.1168394,683552.4513834,0,1.08150470000692,2
222,1,1,2,1,1.70914034603304,683553.5329326,683555.2694332,0,1.29543299996294,1
223,1,2,7,9,1.02491600445437,683556.5649121,683557.613478,0,1.39927980001085,7
224,1,2,6,2,1.82496383715036,683559.0130659,683560.8625789,0,1.35017920006067,6
225,1,2,2,15,1.7945316358935,683562.212823,683564.0343999,0,0.94647399999667,1
226,1,1,6,18,1.38417134179214,683564.980919,683566.3880224,0,1.48093020007946,6
227,1,2,7,16,1.66751223287393,683567.8689978,683569.560025,0,1.93287509994116,6
228,1,1,5,17,1.67694493029789,683571.4929463,683573.1915203,0,1.61358929995913,5
229,1,2,4,17,1.34907640991152,683574.8051578,683576.1812453,0,1.23972179996781,5
230,1,1,4,17,1.86244747496664,683577.421012,683579.3047781,0,2.90808429999743,5
231,1,1,6,14,1.00888471798154,683582.2129383,683583.2457256,0,1.26334629999474,6
232,1,1,8,8,1.05102882400926,683584.5091174,683585.5837402,0,1.03743359993678,8
233,1,2,8,19,1.14171715698129,683586.6212398,683587.7889319,0,0.919969899929129,8
234,1,2,5,21,1.44601083057332,683588.7090672,683590.1795569,0,1.28141409996897,5
235,1,1,2,14,1.58910680902006,683591.4610217,683593.074522,0,1.86652939999476,1
236,1,2,9,12,1.26280840430574,683594.9410982,683596.222447,0,1.27855440007988,9
237,1,2,5,8,1.59398285786444,683597.5010472,683599.1250248,0,1.2961074000923,6
238,1,2,6,17,1.38084632615927,683600.4211787,683601.8218744,0,1.19892400002573,6
239,1,2,9,19,1.377050518567,683603.0208706,683604.4226263,0,1.28549869998824,7
240,1,2,3,1,1.61145512462356,683605.7082292,683607.3441337,0,1.20472589996643,3
241,1,1,3,10,1.32800585475736,683608.5489317,683609.9016419,0,2.01535080000758,6
242,1,1,3,5,1.49585486662728,683611.9170379,683613.434272,0,1.65878319996409,6
243,1,2,7,1,1.67760490767873,683615.0931022,683616.7946611,0,0.963295900030062,7
244,1,2,3,18,1.07720888905382,683617.758004,683618.8590148,0,1.14605039998423,4
245,1,2,3,7,1.51507091375456,683620.0051112,683621.5470963,0,1.48197539988905,4
246,1,2,6,18,1.24393715389774,683623.0291183,683624.2974619,0,1.58756959997118,6
247,1,2,5,18,1.91005016059051,683625.885077,683627.8202423,0,1.34571909997612,5
248,1,1,4,14,1.71817233015743,683629.1662762,683630.9092762,0,1.59980119997635,5
249,1,1,7,6,1.60826428701467,683632.5091241,683634.1411291,0,1.5919577999739,6
250,1,1,5,5,1.69769085834944,683635.7331344,683637.452396,0,2.20904699992388,6
251,1,2,7,6,1.97177397847237,683639.6614898,683641.6549232,0,1.12617009994574,7
252,1,1,3,3,1.38992893996046,683642.7811754,683644.1982946,0,1.14289569994435,4
253,1,2,4,11,1.42933734020348,683645.341238,683646.798248,0,3.19088740006555,6
254,1,1,6,15,1.13338956801668,683649.9891804,683651.1463577,0,1.43457000004128,6
255,1,1,6,7,1.4447369736136,683652.5810055,683654.0464329,0,1.39842800004408,6
256,1,2,9,16,1.64909084552304,683655.4449541,683657.118861,0,1.94336599996313,7
257,1,1,4,4,1.06868366711162,683659.0623241,683660.1524254,0,3.62043280003127,5
258,1,2,6,20,1.19012296707243,683663.7729259,683664.9878953,0,1.75320609996561,4
259,1,2,4,5,1.78285309812638,683666.7414699,683668.5460936,0,1.43497569998726,5
260,1,2,5,14,1.54173809557608,683669.9811182,683671.5459887,0,1.85893840005156,5
261,1,2,9,7,1.83908240568761,683673.4049756,683675.2695227,0,1.31942209997214,8
262,1,2,8,5,1.74234197604528,683676.5889907,683678.3546523,0,0.7543351999484,9
263,1,2,6,12,1.05630914262329,683679.1090742,683680.189991,0,1.64701329998206,6
264,1,1,8,4,1.04617996519056,683681.8370491,683682.9039592,0,1.32503189996351,9
265,1,2,4,9,1.68994965468593,684632.7813802,684634.4983935,0,1.45918020000681,2
266,1,1,9,14,1.31061970017322,684635.9576496,684637.2920224,0,0.921425400068983,9
267,1,2,5,6,1.54935694651024,684638.2134935,684639.7852131,0,1.43620240001474,5
268,1,2,9,22,1.09488482927362,684641.2214997,684642.3410119,0,1.12039249995723,8
269,1,2,1,12,1.06652652226051,684643.4614508,684644.5535505,0,0.987881000037305,1
270,1,1,5,19,1.27522569211964,684645.5414768,684646.8379137,0,1.31956249999348,5
271,1,1,6,6,1.28177289969858,684648.1575231,684649.4620965,0,1.79141409997828,6
272,1,1,7,17,1.14293136688865,684651.2535587,684652.420028,0,2.6831349999411,6
273,1,2,3,13,1.96310016642592,684655.1032487,684657.0899615,0,2.89974829996936,4
274,1,1,1,22,1.51574884174705,684659.9897558,684661.5292382,0,2.66838879999705,1
275,1,2,2,5,1.91503160192759,684664.1976751,684666.1363259,0,1.29329960001633,2
276,1,2,4,14,1.08626572123742,684667.4296699,684668.5407057,0,3.09695499995723,5
277,1,1,9,6,1.06465889984183,684671.6377095,684672.7261541,0,2.33537679992151,8
278,1,1,7,15,1.29580843252826,684675.061577,684676.381416,0,1.04812520009,8
279,1,2,5,17,1.49417587798273,684677.4295908,684678.949709,0,1.44428420008626,5
280,1,2,5,9,1.51151750674724,684680.3940856,684681.9308169,0,1.21880000003148,5
281,1,2,3,4,1.68127536523075,684683.1496616,684684.8583746,0,1.42723330005538,5
282,1,1,3,18,1.8859296527393,684686.285654,684688.1925875,0,1.58897400007118,2
283,1,1,2,16,1.94681443109587,684689.7816077,684691.7520936,0,1.32559030002449,2
284,1,2,5,20,1.53095969016355,684693.0777299,684694.632994,0,1.6367409999948,5
285,1,1,8,21,1.25134652821597,684696.2697833,684697.545465,0,1.88408480002545,8
286,1,2,9,18,1.21941553136892,684699.4295962,684700.6699336,0,1.00753579998855,8
287,1,1,7,12,1.04277016337828,684701.677516,684702.7435374,0,1.13413030002266,8
288,1,2,2,12,1.07227684282979,684703.8777149,684704.9733971,0,1.02425020001829,1
289,1,1,4,16,1.811726607606,684705.9977084,684707.8335862,0,1.65193970000837,2
290,1,1,6,11,1.4860547026284,684709.4855764,684710.9967701,0,1.54491950001102,6
291,1,2,1,2,1.68311587602021,684712.5417357,684714.2498856,0,1.48365460010245,2
292,1,1,2,13,1.72585854776054,684715.7335857,684717.4808261,0,0.836832800065167,1
293,1,1,3,13,1.7668064009665,684718.3177036,684720.1042772,0,1.5492954000365,3
294,1,1,4,3,1.01294273247007,684721.6536799,684722.6919056,0,1.47377699997742,5
295,1,2,7,8,1.76848879974785,684724.1657293,684725.9604811,0,1.22093890001997,6
296,1,1,6,20,1.67762262106784,684727.181482,684728.8836001,0,1.4007200000342,6
297,1,2,2,8,1.91795510927054,684730.2843665,684732.2325302,0,1.39705579995643,1
298,1,1,3,6,1.13335309995655,684733.6296312,684734.7865044,0,1.57989350007847,6
299,1,2,3,21,1.82252201192116,684736.3664452,684738.2107638,0,0.844686300028116,2
300,1,2,6,4,1.3529993903624,684739.0556113,684740.4329083,0,1.1874378999928,6
301,1,1,1,3,1.98565224721935,684741.6204814,684743.6307004,0,0.871233200072311,2
302,1,2,6,8,1.05823629100734,684744.5020947,684745.5780929,0,1.24343859998044,6
303,1,2,7,11,1.42159056917749,684746.821581,684748.2698259,0,1.74375730007887,7
304,1,2,2,22,1.31479811482869,684750.0136287,684751.3520409,0,1.21343809994869,1
305,1,2,6,19,1.31486761810463,684752.5655243,684753.9044518,0,1.70912609994411,7
306,1,1,1,9,1.71479529288118,684755.6136271,684757.3528362,0,1.53261340002064,1
307,1,2,8,4,1.11464956647482,684758.885539,684760.0218612,0,1.54351290001068,9
308,1,1,9,10,1.06974050188527,684761.5654548,684762.6595402,0,0.713969000033103,9
309,1,2,1,20,1.92378173127622,684763.3735553,684765.3210546,0,0.74833650002256,1
310,1,1,1,5,1.17252550909017,684766.0694689,684767.2633301,0,1.00623160006944,1
311,1,1,2,8,1.27150147867992,684768.2696082,684769.5631986,0,1.54057339997962,2
312,1,2,3,14,1.09906077605844,684771.1038438,684772.2240282,0,1.22937519999687,2
313,1,2,2,10,1.99463833841615,684773.4535023,684775.4692693,0,1.02424379996955,2
314,1,2,8,3,1.80586177732427,684776.4935589,684778.3225431,0,1.26694020000286,8
315,1,1,3,22,1.01610894078443,684779.5895586,684780.6301427,0,0.911862200009637,1
316,1,2,8,20,1.40353063450474,684781.5422722,684782.9702556,0,0.996064699953422,9
317,1,1,4,6,1.09996744770634,684783.9664187,684785.0901015,0,1.36348559998441,5
318,1,2,3,20,1.88756901091168,684786.4536353,684788.3652586,0,1.40040180005599,3
319,1,1,7,20,1.73336364577985,684789.7657085,684791.5238429,0,1.35367110010702,6
320,1,1,3,19,1.56804465017858,684792.8775749,684794.4689349,0,1.69670890003908,5
321,1,2,1,7,1.22176064666123,684796.1656932,684797.4122161,0,1.84141460002866,1
322,1,1,6,17,1.65611377928184,684799.2536766,684800.9332347,0,1.71232739998959,6
323,1,2,3,19,1.22345607115609,684802.6456328,684803.8904651,0,1.13119390001521,5
324,1,2,9,9,1.88619966442005,684805.0217098,684806.9323767,0,1.16127899999265,9
325,1,2,5,3,1.66068473420447,684808.0937018,684809.7765174,0,1.18904699990526,5
326,1,2,2,18,1.97825975702842,684810.9656233,684812.9656055,0,0.976015199907124,1
327,1,2,1,14,1.98819131364464,684813.9416663,684815.9540853,0,0.747627099975944,1
328,1,2,7,3,1.95060209235752,684816.7017594,684818.6765445,0,1.38507499999832,6
329,1,1,9,13,1.56269129619718,684820.0616657,684821.6484474,0,0.837350700050592,9
330,1,2,8,21,1.42466374193175,684822.4860179,684823.9318705,0,0.985825399984606,9
331,1,1,5,10,1.39466457855093,684824.9177602,684826.3351164,0,1.23059219995048,5
332,1,1,2,11,1.83677694272193,684827.5657529,684829.4225244,0,1.60711609991267,2
333,1,1,7,8,1.08940025522971,684831.0296848,684832.1448326,0,1.24487589998171,8
334,1,1,1,19,1.81595464696664,684833.389802,684835.22994,0,1.08779560006224,1
335,1,1,7,16,1.18286162440965,684836.3178032,684837.5283067,0,1.18943989998661,7
336,1,2,5,15,1.94374324670513,684838.7177955,684840.6841515,0,1.32936650002375,5
337,1,1,7,7,1.84666701184793,684842.0135659,684843.8865071,0,1.56700620008633,6
338,1,2,7,2,1.91228987770044,684845.4535636,684847.3882545,0,1.28926710004453,7
339,1,1,5,16,1.0525892072156,684848.6775692,684849.7536222,0,1.23586919996887,5
340,1,1,8,17,1.32843786481863,684850.9895377,684852.3437327,0,1.30204009998124,8
341,1,1,9,18,1.64983633052849,684853.6458228,684855.3231094,0,1.77835270005744,8
342,1,2,1,19,1.24620729494451,684857.1015549,684858.3749373,0,1.6147348000668,4
343,1,2,8,8,1.91279885012427,684859.9897611,684861.9236269,0,0.762104500085115,8
344,1,1,4,10,1.46004128869921,684862.6857758,684864.1693402,0,1.19432329991832,5
345,1,1,5,12,1.19707265195842,684865.3637097,684866.5752336,0,1.65451150003355,5
346,1,2,6,14,1.23843217472495,684868.2297891,684869.4924755,0,1.52106319996528,6
347,1,1,1,17,1.31161574955675,684871.0135845,684872.3446518,0,1.56493180000689,2
348,1,2,2,14,1.84547981731214,684873.9096286,684875.7767104,0,0.788882600027137,1
349,1,2,1,3,1.46153526359624,684876.5656384,684878.0513997,0,1.57815640000626,2
350,1,1,6,12,1.44767824506402,684879.6296001,684881.098503,0,1.33122849999927,6
351,1,2,1,4,1.54453081370335,684882.4298629,684884.0000979,0,1.5575714999577,7
352,1,1,6,3,1.5715968624887,684885.5577179,684887.1532899,0,2.35627729992848,6
353,1,1,5,6,1.56987140218356,684889.5096637,684891.1065718,0,1.41427260008641,5
354,1,2,5,13,1.74295553586135,684892.5209378,684894.2920379,0,1.12216970010195,5
355,1,1,2,20,1.45880768845121,684895.414291,684896.8978069,0,1.5398775000358,3
356,1,2,8,16,1.86068721562762,684898.4377831,684900.3209771,0,1.2048084998969,7
357,1,2,7,18,1.79690125215784,684901.5258349,684903.3515718,0,1.74222450004891,6
358,1,1,9,20,1.95305759123121,684905.0938436,684907.0688252,0,0.760949900024571,9
359,1,1,8,5,1.45870293680662,684907.829823,684909.3135025,0,0.756281500100158,9
360,1,1,3,11,1.70657949320963,684910.0698313,684911.8007712,0,1.46103200002108,3
361,1,2,9,13,1.95517869124943,684913.2618507,684915.2439984,0,1.02573519991711,9
362,1,2,5,7,1.2126839839068,684916.2697807,684917.509865,0,1.42416699999012,5
363,1,1,4,9,1.7470010002355,684918.9340803,684920.7046703,0,2.2613585999934,2
364,1,1,7,4,1.5096940574995,684922.9660831,684924.4994731,0,2.50619620003272,8
365,1,2,3,5,1.24746439706032,684927.00572,684928.2773196,0,1.24037879996467,3
366,1,2,1,9,1.83095057828948,684929.5177445,684931.3717368,0,1.66652570001315,1
367,1,2,4,20,1.50580357710942,684933.0383805,684934.5638324,0,1.80993949994445,4
368,1,2,9,11,1.11953394051209,684936.3738177,684937.5191022,0,2.5746908999281,8
369,1,2,8,15,1.06140062803613,684940.0938405,684941.1802721,0,1.24949820002075,9
370,1,2,3,6,1.77467646039672,684942.4298185,684944.2252739,0,3.08450690004975,6
371,1,1,9,21,1.18304490760691,684947.3098266,684948.5168222,0,0.880814599920996,9
372,1,1,8,3,1.02271077840334,684949.3977172,684950.442242,0,1.25374109996483,7
373,1,2,9,6,1.00770487839059,684951.6960837,684952.7256234,0,0.912076500011608,8
374,1,1,2,5,1.76938210438706,684953.6377441,684955.4323963,0,1.24536940001417,2
375,1,1,3,12,1.88116098055684,684956.6778122,684958.5853125,0,1.54552179994062,4
376,1,1,7,14,1.25689145169607,684960.1308789,684961.4063227,0,1.17552320007235,6
377,1,2,1,8,1.62377522414375,684962.5818949,684964.2274818,0,1.21022509993054,2
378,1,2,3,15,1.23941849985006,684965.4377531,684966.6995686,0,1.45781489997171,1
379,1,1,7,2,1.95180503877661,684968.1574303,684970.132184,0,1.24940630001947,7
380,1,2,5,16,1.75175536667699,684971.3816358,684973.1571214,0,1.38468120002653,5
381,1,1,1,2,1.42110583919001,684974.5419151,684975.9913339,0,1.94226529996376,3
382,1,1,8,20,1.9014981514746,684977.9336654,684979.8628357,0,0.9950916999951,8
383,1,1,4,22,1.94455959160542,684980.8579749,684982.8239758,0,1.46855980006512,5
384,1,1,8,13,1.09749389174821,684984.2926292,684985.4110117,0,3.97872789995745,7
385,1,2,5,12,1.88713689766682,684989.3897883,684991.3019862,0,1.24017239990644,5
386,1,2,1,13,1.90286329837419,684992.5424028,684994.4689164,0,3.3047901999671,3
387,1,2,5,10,1.15821044865608,684997.7737635,684998.9536757,0,2.86795290000737,5
388,1,2,9,10,1.7332820157989,685001.8216761,685003.5779202,0,1.47583660006057,8
389,1,2,7,15,1.13913177270182,685005.0538054,685006.2219771,0,0.927770899957977,8
390,1,2,1,1,1.46152914349794,685007.1498478,685008.6350956,0,1.51414719992317,2
391,1,2,2,4,1.73389117559641,685010.1493252,685011.9046382,0,1.63709690002725,4
392,3,1,7,21,1.00302578151385,685013.5417808,685014.5669688,0,NaN,None
393,1,2,3,12,1.17067206698673,685018.5673038,685019.764895,0,2.05689359991811,3
394,1,2,9,15,1.99107286389322,685021.8218984,685023.838719,0,0.902996100019664,9
395,1,2,9,20,1.11109038685173,685024.7417609,685025.8782948,0,0.935454200021923,8
396,1,1,5,20,1.40204526645538,685026.8137973,685028.2398156,0,1.11795420001727,5
