ID,State,Position ID,Morph Step,Face Person,ITI,Trial_Onset,Stim_Onset,Stim_Offset,RT,Answer
1,3,1,2,17,1.11734994610377,834790.8721254,834792.9342898,0,NaN,None
2,1,1,3,9,1.49431016754865,834796.9344666,834798.4580477,0,2.64214360003825,2
3,1,2,6,9,1.8649915289897,834801.1010818,834802.993615,0,3.56362349994015,5
4,1,2,1,22,1.61130079431115,834806.5586845,834808.1952393,0,3.35697750002146,2
5,1,2,2,2,1.2520377066971,834811.5528126,834812.8334621,0,2.16145020001568,3
6,1,1,7,22,1.0892581467904,834814.9970408,834816.1118612,0,3.06135580001865,7
7,1,1,7,9,1.4419142395778,834819.1732983,834820.6414931,0,2.06692400004249,8
8,1,2,7,13,1.03805427978994,834822.7085327,834823.7750113,0,1.88624789996538,6
9,1,2,9,21,1.1208602713602,834825.6613363,834826.8096337,0,1.6317414001096,8
10,1,2,6,6,1.60838213415177,834828.4414548,834830.0749914,0,3.56742490001488,5
11,1,2,6,11,1.50853546805949,834833.6425537,834835.173478,0,0.89674840006046,5
12,1,2,8,12,1.37518105407351,834836.0702979,834837.4739143,0,2.24500740005169,8
13,1,1,6,19,1.78376002800797,834839.7191696,834841.531132,0,1.63740989996586,5
14,1,1,9,5,1.93206329828928,834843.1686198,834845.1250131,0,2.42823650001083,9
15,1,1,3,1,1.39857762282981,834847.5534552,834848.9753021,0,2.73993929999415,3
16,1,2,6,22,1.46701983284938,834851.7153128,834853.2072231,0,2.17331450001802,6
17,1,2,5,19,1.23312222696909,834855.3806149,834856.6421451,0,1.74914119997993,5
18,1,2,2,17,1.28528670817784,834858.3913587,834859.7025995,0,2.89369280007668,2
19,1,1,2,9,1.68492771140827,834862.5964852,834864.3080448,0,1.98720590001903,2
20,3,2,2,20,1.85482255929456,834866.2953236,834868.1757629,0,NaN,None
21,1,2,3,16,1.61543897421911,834872.1760546,834873.8158306,0,3.36156039999332,4
22,1,1,6,5,1.7051144503972,834877.1777875,834878.9080317,0,2.70602590008639,5
23,1,1,6,10,1.41792794258002,834881.6141306,834883.0586315,0,1.03662689996418,5
24,1,2,9,4,1.88539075310438,834884.0953299,834886.010587,0,1.60520569991786,9
25,1,2,1,16,1.12547175345098,834887.6162623,834888.7669675,0,2.51220160000958,2
26,1,2,9,2,1.42284266312107,834891.2792326,834892.7292333,0,2.58389050001279,9
27,1,1,4,21,1.64145207428328,834895.3131948,834896.9813134,0,1.44682780001312,5
28,1,1,4,19,1.2896964293354,834898.4285028,834899.7429708,0,1.45810719998553,5
29,1,2,8,13,1.96805473386125,834901.2011512,834903.1980207,0,1.74526909994893,6
30,1,1,3,8,1.25147723114912,834904.9433642,834906.2190913,0,1.94330959999934,5
31,1,2,7,4,1.7171277668113,834908.1625857,834909.9082041,0,2.54507850005757,8
32,1,1,1,8,1.31037369312116,834912.4535922,834913.789673,0,2.2764645999996,2
33,1,2,7,12,1.0158390420133,834916.0662602,834917.1092021,0,1.53206230001524,7
34,1,1,4,13,1.34602155945123,834918.6413324,834920.0114062,0,1.32390840002336,5
35,1,1,5,7,1.35130902219682,834921.3353884,834922.7133777,0,1.89202330005355,5
36,1,2,7,20,1.15944279346741,834924.6054738,834925.7903758,0,3.03803200006951,7
37,1,2,1,10,1.02800857665296,834928.8284802,834929.8846033,0,3.13071329996455,2
38,1,2,6,16,1.79554373694673,834933.0153905,834934.8361365,0,1.44120530004147,5
39,1,2,4,10,1.59693054068373,834936.2775996,834937.9009941,0,3.10437830002047,3
40,1,2,2,7,1.24408901081693,834941.0054444,834942.2760915,0,2.21452080004383,2
41,1,2,8,2,1.08211222455194,834944.4906865,834945.6006926,0,1.09359870001208,8
42,1,2,4,2,1.93189368911286,834946.6944958,834948.6545598,0,2.53760379995219,4
43,1,2,3,3,1.6217737263398,834951.1924944,834952.8373074,0,2.98842490010429,4
44,1,1,6,21,1.69250833409734,834955.8259312,834957.5451791,0,1.50733139994554,5
45,1,2,7,22,1.30496944825966,834959.052785,834960.3835821,0,1.97358379990328,7
46,1,2,1,6,1.59101605343581,834962.3575238,834963.9762686,0,2.10503910004627,3
47,1,1,2,6,1.14996502507754,834966.0813785,834967.2571217,0,1.11573359998874,3
48,1,1,2,12,1.76472292570854,834968.3732514,834970.1621001,0,2.20014640002046,2
49,1,1,4,2,1.73713156346543,834972.3624912,834974.1212566,0,2.40412980003748,5
50,1,1,2,21,1.6684881054994,834976.5254667,834978.2201586,0,3.44622879999224,3
51,1,1,1,6,1.98201764185155,834981.6667851,834983.6763212,0,3.63601300003938,4
52,1,2,4,3,1.13667220089447,834987.3124143,834988.4772851,0,1.2121495999163,5
53,1,1,9,16,1.59911611468891,834989.6895056,834991.3184841,0,2.3097337000072,8
54,1,1,1,21,1.14160933358024,834993.628559,834994.7950964,0,1.79444430000149,2
55,1,1,6,4,1.9750718021305,834996.5896146,834998.5894397,0,3.43178029998671,6
56,1,1,9,8,1.24612357135546,835002.0212836,835003.2926138,0,1.93073489994276,9
57,1,1,3,20,1.65568111389953,835005.2234186,835006.9040734,0,1.7512921000598,2
58,1,1,9,15,1.63510641683715,835008.6554415,835010.3161909,0,1.18815349997021,9
59,1,1,6,13,1.88945244478997,835011.5044166,835013.4212476,0,1.27585159998853,5
60,1,1,2,4,1.46772297192527,835014.6972327,835016.19167,0,2.57316660007928,4
61,1,1,5,21,1.86702787870187,835018.7652398,835020.6599363,0,0.799389999941923,5
62,1,1,2,15,1.06947545980051,835021.459398,835022.5555648,0,1.6588136999635,2
63,1,1,6,9,1.86570156314517,835024.2144511,835026.1044336,0,1.60292089998256,5
64,1,1,7,13,1.85034777413907,835027.7074262,835029.5842153,0,1.45312720001675,6
65,1,1,9,3,1.95307395981482,835031.0374158,835033.0192184,0,1.87015830003656,8
66,1,1,4,7,1.96508004573003,835034.8894496,835036.8815206,0,1.02084329992067,5
67,1,2,4,4,1.43851226121369,835037.9024344,835039.3691407,0,1.92223680007737,5
68,1,2,2,11,1.21750448738439,835041.2914507,835042.5341359,0,1.49520320002921,3
69,1,1,1,11,1.56712256682538,835044.0294019,835045.6234244,0,1.13489900005516,3
70,1,1,8,10,1.06302225598321,835046.7583846,835047.8504483,0,1.44790239993017,8
71,1,1,1,10,1.73132485516342,835049.2984224,835051.0556443,0,2.50072500004899,2
72,1,1,4,15,1.82182290085291,835053.5564445,835055.4029924,0,2.09145289997105,5
73,1,1,9,1,1.15413568589954,835057.4946867,835058.6766343,0,1.06571609992534,9
74,1,1,3,4,1.18449524622397,835059.7424231,835060.9524724,0,2.39517939998768,6
75,1,2,9,8,1.43681839728839,835063.3478982,835064.8116957,0,2.00268019991927,8
76,1,2,5,22,1.19755853611547,835066.8144498,835068.0379332,0,2.48442809993867,5
77,1,2,2,6,1.59430838880788,835070.522436,835072.1470596,0,2.24547039996833,4
78,1,2,6,5,1.61187978126596,835074.3926052,835076.0310097,0,1.50148829992395,5
79,1,1,9,7,1.20209241962987,835077.5325728,835078.7567707,0,1.69460990000516,8
80,1,2,3,2,1.95821021125459,835080.4516855,835082.4318545,0,1.57167570001911,3
81,1,1,8,19,1.26198208578184,835084.0036046,835085.2931671,0,2.40974009991623,7
82,1,1,8,15,1.72358812553703,835087.7031691,835089.4556777,0,1.10370199999306,9
83,1,1,3,21,1.36580474597586,835090.5594647,835091.9527092,0,3.13868860004004,2
84,1,1,5,3,1.4380776433021,835095.091478,835096.5567614,0,0.945614500087686,5
85,1,2,1,21,1.01769841373009,835097.5024481,835098.5469551,0,1.45242190000135,2
86,1,1,7,5,1.22106051094951,835099.9994483,835101.2452862,0,1.35521220008377,8
87,1,1,6,16,1.97737950428854,835102.6006552,835104.6084039,0,2.44498809997458,6
88,1,2,1,5,1.27015219465153,835107.0534647,835108.3503878,0,1.64703280001413,2
89,1,1,2,7,1.23312488648919,835109.9974919,835111.2584108,0,3.68310659995768,3
90,1,2,8,17,1.82985794514394,835114.9416516,835116.7963485,0,1.19110220007133,8
91,1,2,8,11,1.38994433760055,835117.9875239,835119.4037984,0,1.5536081000464,8
92,1,2,6,13,1.21976016151118,835120.9574804,835122.2023798,0,1.94603340001777,5
93,1,2,3,10,1.96417765860823,835124.1484887,835126.1399524,0,3.75034929998219,3
94,1,2,7,14,1.18364747690399,835129.8904765,835131.1009242,0,3.28537269996013,7
95,1,2,7,7,1.60825696988425,835134.3863609,835136.0196819,0,2.28076019999571,7
96,1,2,2,16,1.38077157456464,835138.3005344,835139.7071679,0,2.30013409990352,3
97,1,2,7,21,1.69894687110417,835142.0073652,835143.7337663,0,2.52165190002415,8
98,1,1,9,2,1.56729072414399,835146.2554893,835147.8486081,0,0.981792900012806,9
99,1,1,5,18,1.53766685437186,835148.830474,835150.3944193,0,1.2510177999502,5
100,1,1,8,14,1.53780288995335,835151.6455096,835153.2097702,0,2.78665660007391,7
101,1,2,4,21,1.7942666850474,835155.9965097,835157.818682,0,2.08175409992691,5
102,1,1,8,7,1.69050546760452,835159.9005119,835161.6201188,0,1.91918159998022,8
103,1,1,2,10,1.10122749221849,835163.5394764,835164.6656714,0,1.84277340001427,2
104,1,1,4,1,1.12543277641357,835166.508518,835167.6600974,0,1.25934180000331,5
105,1,2,8,18,1.02352201502626,835168.91951,835169.9689767,0,1.90346499998122,8
106,1,1,2,2,1.28286862068785,835171.8725129,835173.1720103,0,2.75972039997578,2
107,1,2,8,14,1.71288497700542,835175.9318038,835177.670309,0,1.80611650005449,7
108,1,2,1,17,1.91422991675829,835179.476499,835181.4161805,0,2.69412610004656,2
109,1,2,4,8,1.73632458342693,835184.1104853,835185.8759494,0,1.49451069999486,5
110,1,1,4,11,1.02177460652716,835187.3706695,835188.4170106,0,0.94441870006267,5
111,1,1,2,18,1.09774587544631,835189.3615016,835190.4833949,0,3.14312160003465,2
112,1,2,4,13,1.51848346385811,835193.6265871,835195.1706344,0,0.868785600061528,5
113,1,2,5,1,1.69309111467129,835196.0396409,835197.7593595,0,0.794082599924877,5
114,1,2,9,17,1.09159513650019,835198.553515,835199.6690244,0,0.986495400080457,9
115,1,2,8,6,1.67451860272874,835200.6555923,835202.3492086,0,1.19818810001016,8
116,1,1,9,9,1.30740071625045,835203.54747,835204.8832382,0,0.904195600072853,9
117,1,2,1,15,1.46510439651631,835205.7875067,835207.2788697,0,1.85558329999913,1
118,1,2,6,21,1.19141174469006,835209.1345264,835210.351451,0,1.84599659999367,5
119,1,2,6,1,1.24731448475227,835212.1975298,835213.4689773,0,0.754494499997236,5
120,1,1,5,14,1.81468267480892,835214.2235417,835216.0658382,0,0.895596899907105,5
121,1,1,4,20,1.59579109002412,835216.9615083,835218.5837823,0,0.651650900021195,5
122,1,2,8,9,1.76060754012624,835219.2355056,835221.0222616,0,1.12216699996497,9
123,1,2,4,18,1.69011310636204,835222.1445006,835223.8589644,0,1.43468139995821,5
124,1,2,5,4,1.93349097575411,835225.2937325,835227.2519237,0,1.3295480000088,5
125,1,2,2,9,1.06724335892497,835228.581563,835229.6764286,0,2.06200949999038,2
126,1,1,9,11,1.04536986065116,835231.7385095,835232.8078189,0,1.21418200002518,8
127,1,1,6,2,1.72018435168254,835234.0222633,835235.7724181,0,0.935047699953429,5
128,1,2,9,14,1.26672277790819,835236.7075374,835238.0011228,0,1.10138259991072,9
129,1,1,5,8,1.90026379450443,835239.1025776,835241.0281838,0,0.845389499911107,5
130,1,1,4,12,1.20757443539641,835241.8736454,835243.1070113,0,1.066452799947,5
131,1,1,7,1,1.11198404005557,835244.1735748,835245.3148676,0,2.50562309997622,8
132,1,2,3,9,1.02146444506662,835247.8205634,835248.8665847,0,2.08692260005046,3
133,1,1,7,11,1.08221073309136,835377.0957996,835378.2109168,0,2.30163360002916,7
134,1,1,9,12,1.50673368268437,835380.5143786,835382.0463802,0,0.972188399988227,9
135,1,1,5,13,1.4884370286218,835383.018641,835384.5351226,0,1.14465189992916,5
136,1,1,4,18,1.95495746634571,835385.6800557,835387.6589475,0,1.76959389995318,4
137,1,2,4,19,1.15069745437781,835389.4286146,835390.6092956,0,0.707238400005735,5
138,1,1,2,3,1.26677257430027,835391.3166036,835392.6104873,0,1.6081388000166,3
139,1,1,7,10,1.88635548127539,835394.2186976,835396.1255539,0,2.28012569993734,7
140,1,1,1,12,1.98174303243349,835398.4057539,835400.4134105,0,2.10353590000886,1
141,1,1,1,4,1.81210424983421,835402.5171327,835404.3553808,0,3.38962320005521,3
142,1,2,3,22,1.61929456800581,835407.7450762,835409.385747,0,1.43781170004513,3
143,1,1,1,20,1.80409097074258,835410.8238135,835412.6517501,0,1.75943139998708,1
144,1,1,3,16,1.95520449358595,835414.4114141,835416.3915166,0,1.71804219996557,5
145,1,1,6,1,1.1891456798798,835418.1096296,835419.3271449,0,0.705407100031152,5
146,1,2,2,19,1.31258125913122,835420.0326255,835421.3722664,0,0.634139299974777,5
147,3,1,1,1,1.87835297083463,835422.0066614,835423.9108157,0,NaN,None
148,1,2,7,19,1.30372951525594,835427.9113374,835429.2424546,0,1.07009069994092,5
149,1,1,8,1,1.60364014967229,835430.3126153,835431.946093,0,3.49834930000361,8
150,1,1,7,19,1.89287180611732,835435.4445352,835437.3651903,0,0.791374799911864,5
151,1,1,1,14,1.77405393265362,835438.1566366,835439.9563192,0,2.78343149996363,1
152,1,1,5,9,1.46930307394484,835442.7398223,835444.2342642,0,2.74671620002482,3
153,1,2,6,7,1.37207974496541,835446.981156,835448.3783655,0,2.97635410004295,6
154,1,1,1,15,1.60481306405292,835451.3549692,835452.9885145,0,1.4820532000158,2
155,1,1,8,6,1.63447108268435,835454.4706354,835456.1311712,0,2.08942950004712,8
156,1,2,6,15,1.74191102432431,835458.2206728,835459.9881947,0,1.69038240006194,6
157,1,2,4,1,1.62287644963298,835461.678675,835463.3283159,0,2.13525789999403,5
158,1,2,3,17,1.54177459542921,835465.463644,835467.0344322,0,2.76323619997129,4
159,1,2,6,3,1.53110450200998,835469.7978672,835471.354477,0,1.38710789999459,5
160,1,1,5,22,1.41720628350108,835472.7416538,835474.1858124,0,0.725980399991386,5
161,1,1,9,19,1.90498163539421,835474.9118638,835476.8415956,0,2.07000700000208,6
162,1,2,5,11,1.31879255941516,835478.9116741,835480.257811,0,0.970789600047283,5
163,1,2,1,11,1.79038788169797,835481.2286731,835483.0464937,0,3.45213760004845,3
164,1,2,9,5,1.26619607446557,835486.4987062,835487.7899992,0,2.78461049997713,8
165,1,2,8,7,1.99107354822008,835490.5746827,835492.5928495,0,3.34476040001027,8
166,1,1,8,11,1.12862089217948,835495.9376912,835497.0932563,0,2.01037909998558,8
167,1,1,3,7,1.01543407171779,835499.1037098,835500.1465675,0,3.27519770001527,3
168,1,1,9,17,1.96569619794955,835503.4220769,835505.4116138,0,1.8890156999696,8
169,1,1,5,2,1.8114095244553,835507.3007078,835509.1409889,0,3.03364200005308,5
170,1,1,6,22,1.7502513486778,835512.174693,835513.9536786,0,2.15094409999438,5
171,1,1,5,1,1.64985034239946,835516.1046919,835517.780892,0,0.769738900009543,5
172,1,2,2,1,1.51086670074515,835518.5507046,835520.0881838,0,1.68043840001337,3
173,1,2,3,11,1.99675533386523,835521.7686928,835523.7959687,0,1.18321440008003,5
174,1,1,7,18,1.4445114368588,835524.9794814,835526.4501715,0,3.12745849997737,6
175,1,1,8,16,1.56483030997965,835529.5777039,835531.1713783,0,2.54325510002673,8
176,1,1,9,22,1.47000058362609,835533.7147043,835535.2098478,0,2.22889640007634,9
177,1,1,1,7,1.10832068560733,835537.4394106,835538.5756467,0,1.4299777999986,2
178,1,2,2,3,1.67632750889171,835540.0056937,835541.7078871,0,1.56682649999857,3
179,1,2,3,8,1.87590051955648,835543.2747824,835545.1763163,0,2.62944609997794,4
180,1,2,4,16,1.98863322271666,835547.8058411,835549.8229266,0,1.84569820004981,5
181,1,1,9,4,1.48287588680009,835551.6686954,835553.180642,0,0.949862199951895,9
182,1,2,4,6,1.96289802902881,835554.1307176,835556.1217015,0,1.2439426999772,5
183,1,2,4,7,1.41381080279602,835557.3657245,835558.8060441,0,0.705578300054185,5
184,1,1,8,2,1.94492452548762,835559.5116921,835561.4845783,0,2.03405649994966,8
185,1,2,4,22,1.42026007082653,835563.5187061,835564.9643944,0,1.2752742000157,5
186,1,1,4,8,1.84187456300795,835566.2399243,835568.1076095,0,2.08816660009325,5
187,1,1,3,17,1.96403475848574,835570.1959839,835572.1832145,0,2.22542220004834,4
188,1,1,8,18,1.4951544337576,835574.4087236,835575.9304331,0,2.12621050002053,7
189,1,1,7,3,1.44401472646673,835578.0567164,835579.531543,0,2.32618069997989,6
190,1,2,4,12,1.94931683629437,835581.8577941,835583.8289447,0,1.36769179999828,5
191,1,2,9,3,1.92492574055163,835585.1967081,835587.1483769,0,3.05600590002723,8
192,1,2,8,22,1.76630958249445,835590.2054922,835591.9996306,0,2.51715279999189,9
193,1,1,5,11,1.59458568166073,835594.5168536,835596.1368614,0,3.9407747000223,5
194,1,1,1,13,1.18288133870809,835600.0777554,835601.2894987,0,3.08816700009629,3
195,1,2,7,5,1.70416117082263,835604.3777288,835606.1093762,0,3.88048900000285,4
196,1,2,5,5,1.73891643040673,835609.9903031,835611.7558304,0,1.34885479998775,5
197,1,1,1,18,1.95560514419917,835613.1047834,835615.0877295,0,2.04194989998359,2
198,1,1,8,9,1.25019607943634,835617.1297508,835618.4093357,0,1.94633820001036,9
199,1,2,6,10,1.22603694534849,835620.3557422,835621.6088688,0,3.25276419997681,7
200,1,1,5,15,1.9771397979014,835624.8616948,835626.8632388,0,1.02744350000285,5
201,1,1,3,2,1.62837820808033,835627.8907498,835629.5439534,0,2.57777009997517,4
202,1,2,7,10,1.72309511649756,835632.1217932,835633.8707597,0,3.59784699999727,7
203,1,2,2,21,1.5012405519883,835637.4686797,835638.9938964,0,2.83379870001227,3
204,1,2,5,2,1.80417814688177,835641.8277679,835643.6567757,0,1.92999539989978,5
205,1,1,2,19,1.22239318889713,835645.5868316,835646.8372995,0,3.76041460002307,4
206,1,1,8,12,1.46674785773267,835650.5981495,835652.1069168,0,2.87686830002349,7
207,1,2,2,13,1.79475010002011,835654.984005,835656.8040774,0,3.25172589998692,4
208,1,1,6,8,1.33029172394022,835660.0558766,835661.4113545,0,1.45831310003996,5
209,1,2,9,1,1.13297532742042,835662.8697393,835664.0306279,0,2.34906269994099,9
210,1,1,4,5,1.20031757568894,835666.3797599,835667.6016401,0,2.30603959993459,5
211,1,1,5,4,1.23527695885293,835669.9077478,835671.1680682,0,3.14058410003781,4
212,1,1,1,16,1.29323929085621,835674.3087232,835675.6316728,0,1.86104210000485,3
213,1,2,4,15,1.40575871582035,835677.4927871,835678.9262019,0,2.6083775999723,5
214,1,2,1,18,1.47846430083564,835681.5347529,835683.0428127,0,3.38390139990952,3
215,1,2,8,1,1.93115258542763,835686.426783,835688.383856,0,1.37312300002668,8
216,1,2,7,17,1.93490249031767,835689.7570567,835691.7160952,0,2.77763119991869,8
217,1,1,3,15,1.39452284650533,835694.4938067,835695.9181084,0,2.60132270003669,2
218,1,1,2,22,1.44080432104972,835698.5195053,835699.985956,0,1.98176090000197,2
219,3,1,8,22,1.87927555732685,835701.9677887,835703.8739905,0,NaN,None
220,1,2,8,10,1.65828976198304,835707.8742276,835709.5604571,0,1.69321709999349,9
221,1,1,3,14,1.31109993032771,835711.2539781,835712.5959212,0,1.79007760004606,3
222,1,1,2,1,1.70914034603304,835714.3860834,835716.1210786,0,1.57815590000246,2
223,1,2,7,9,1.02491600445437,835717.6993489,835718.7560691,0,1.5254966999637,8
224,1,2,6,2,1.82496383715036,835720.2817407,835722.1322189,0,1.77152019995265,6
225,1,2,2,15,1.7945316358935,835723.9038,835725.7270484,0,2.10668369999621,3
226,1,1,6,18,1.38417134179214,835727.8338032,835729.2439318,0,1.50781740003731,5
227,1,2,7,16,1.66751223287393,835730.7518206,835732.4456448,0,1.93636210006662,7
228,1,1,5,17,1.67694493029789,835734.3821514,835736.088498,0,1.4000873999903,5
229,1,2,4,17,1.34907640991152,835737.4886512,835738.8668663,0,1.16193199995905,5
230,1,1,4,17,1.86244747496664,835740.0288703,835741.9198884,0,1.11185840005055,5
231,1,1,6,14,1.00888471798154,835743.0318274,835744.0672128,0,2.63754979998339,5
232,1,1,8,8,1.05102882400926,835746.7048339,835747.7822863,0,1.57445349998306,8
233,1,2,8,19,1.14171715698129,835749.3569926,835750.5270838,0,1.53362899995409,6
234,1,2,5,21,1.44601083057332,835752.0607839,835753.5322228,0,2.82752200006507,4
235,1,1,2,14,1.58910680902006,835756.3598174,835757.9746854,0,1.94715839996934,3
236,1,2,9,12,1.26280840430574,835759.9219238,835761.2154006,0,1.7093871999532,8
237,1,2,5,8,1.59398285786444,835762.9248604,835764.545906,0,1.79501700005494,5
238,1,2,6,17,1.38084632615927,835766.3409952,835767.7475445,0,1.98320629994851,6
239,1,2,9,19,1.377050518567,835769.7308222,835771.134157,0,1.51361190003809,7
240,1,2,3,1,1.61145512462356,835772.6478554,835774.2843446,0,1.88252589991316,3
241,1,1,3,10,1.32800585475736,835776.1669407,835777.5238152,0,1.16594099998474,3
242,1,1,3,5,1.49585486662728,835778.6898259,835780.2102318,0,1.84363290003967,4
243,1,2,7,1,1.67760490767873,835782.0540683,835783.7582235,0,3.29867120005656,7
244,1,2,3,18,1.07720888905382,835787.056965,835788.1597596,0,2.00399130000733,4
245,1,2,3,7,1.51507091375456,835790.1638184,835791.7073873,0,1.32233220001217,4
246,1,2,6,18,1.24393715389774,835793.0299152,835794.3006983,0,1.13307430001441,4
247,1,2,5,18,1.91005016059051,835795.4338433,835797.3688136,0,0.535335099906661,4
248,1,1,4,14,1.71817233015743,835797.9044483,835799.6499466,0,2.61366310005542,5
249,1,1,7,6,1.60826428701467,835802.2639444,835803.9018617,0,1.97489700000733,7
250,1,1,5,5,1.69769085834944,835805.8768297,835807.6019255,0,1.11581610003486,5
251,1,2,7,6,1.97177397847237,835808.7178117,835810.7164394,0,2.99637179996353,7
252,1,1,3,3,1.38992893996046,835813.7129199,835815.1276359,0,2.96114949998446,3
253,1,2,4,11,1.42933734020348,835818.0890241,835819.5451541,0,2.42286930000409,5
254,1,1,6,15,1.13338956801668,835821.9680989,835823.1262705,0,2.86549789994024,6
255,1,1,6,7,1.4447369736136,835825.9918383,835827.4619248,0,0.993924900074489,5
256,1,2,9,16,1.64909084552304,835828.4559415,835830.1308213,0,2.76196869998239,8
257,1,1,4,4,1.06868366711162,835832.8928599,835833.9896732,0,2.36909740010742,5
258,1,2,6,20,1.19012296707243,835836.3589343,835837.5740256,0,0.767728800070472,5
259,1,2,4,5,1.78285309812638,835838.341815,835840.1527865,0,0.745998699916527,5
260,1,2,5,14,1.54173809557608,835840.8988709,835842.4663999,0,1.20440139994025,5
261,1,2,9,7,1.83908240568761,835843.6708723,835845.5406053,0,2.28419679997023,8
262,1,2,8,5,1.74234197604528,835847.8248737,835849.5932201,0,2.63452309998684,8
263,1,2,6,12,1.05630914262329,835852.2278714,835853.3093469,0,2.547467000084,5
264,1,1,8,4,1.04617996519056,835855.8568836,835856.9290185,0,2.75578300002962,8
265,1,2,4,9,1.68994965468593,835985.7470656,835987.4696267,0,1.70525439991616,3
266,1,1,9,14,1.31061970017322,835989.1749657,835990.5089312,0,1.16295020002872,9
267,1,2,5,6,1.54935694651024,835991.6719513,835993.2460157,0,1.00886780000292,5
268,1,2,9,22,1.09488482927362,835994.2549519,835995.3757912,0,0.990096000023186,9
269,1,2,1,12,1.06652652226051,835996.3660343,835997.4585256,0,2.49432149995118,1
270,1,1,5,19,1.27522569211964,835999.9531069,836001.2538371,0,1.41904419998173,5
271,1,1,6,6,1.28177289969858,836002.6729615,836003.9793549,0,0.967456100042909,5
272,1,1,7,17,1.14293136688865,836004.9468722,836006.1145692,0,2.58332910004538,8
273,1,2,3,13,1.96310016642592,836008.6979699,836010.6867744,0,0.834122500033118,5
274,1,1,1,22,1.51574884174705,836011.5209669,836013.0617032,0,2.06339949998073,1
275,1,2,2,5,1.91503160192759,836015.1251854,836017.0693639,0,1.69451449997723,3
276,1,2,4,14,1.08626572123742,836018.7642238,836019.8745464,0,1.37041309999768,5
277,1,1,9,6,1.06465889984183,836021.2450327,836022.3375353,0,1.23234300001059,8
278,1,1,7,15,1.29580843252826,836023.5699481,836024.8909094,0,1.64795170002617,8
279,1,2,5,17,1.49417587798273,836026.5389309,836028.0586778,0,1.77605969994329,5
280,1,2,5,9,1.51151750674724,836029.8349242,836031.3716033,0,2.37657119997311,3
281,1,2,3,4,1.68127536523075,836033.7485436,836035.4547864,0,1.61406839999836,5
282,1,1,3,18,1.8859296527393,836037.0690716,836038.9775007,0,2.94952399993781,3
283,1,1,2,16,1.94681443109587,836041.927095,836043.9028965,0,2.80297630000859,4
284,1,2,5,20,1.53095969016355,836046.7060573,836048.2615062,0,2.18623730004765,5
285,1,1,8,21,1.25134652821597,836050.4481399,836051.7285569,0,2.80445149994921,8
286,1,2,9,18,1.21941553136892,836054.5330786,836055.7779872,0,1.34651800000574,9
287,1,1,7,12,1.04277016337828,836057.1248062,836058.1921139,0,2.57963270007167,7
288,1,2,2,12,1.07227684282979,836060.7722601,836061.869892,0,3.00397950003389,2
289,1,1,4,16,1.811726607606,836064.8739432,836066.7115131,0,1.13949620001949,5
290,1,1,6,11,1.4860547026284,836067.8512117,836069.3653492,0,1.9185412999941,6
291,1,2,1,2,1.68311587602021,836071.2839631,836072.9927852,0,3.29538429994136,3
292,1,1,2,13,1.72585854776054,836076.2882472,836078.0397306,0,1.71401570003945,3
293,1,1,3,13,1.7668064009665,836079.7539143,836081.5488363,0,1.66356369992718,5
294,1,1,4,3,1.01294273247007,836083.2126306,836084.2527359,0,1.19119479996152,5
295,1,2,7,8,1.76848879974785,836085.4440136,836087.2378399,0,2.77095110004302,7
296,1,1,6,20,1.67762262106784,836090.0089894,836091.7123112,0,2.08163330005482,6
297,1,2,2,8,1.91795510927054,836093.7940149,836095.7385763,0,2.88650200003758,2
298,1,1,3,6,1.13335309995655,836098.6257536,836099.7830343,0,2.79838789999485,5
299,1,2,3,21,1.82252201192116,836102.5815492,836104.4325639,0,3.01535350002814,3
300,1,2,6,4,1.3529993903624,836107.4481284,836108.8279918,0,3.09101329999976,3
301,1,1,1,3,1.98565224721935,836111.9190661,836113.9313299,0,2.50972109998111,3
302,1,2,6,8,1.05823629100734,836116.4411217,836117.5234128,0,2.04153809999116,6
303,1,2,7,11,1.42159056917749,836119.5650206,836121.0173443,0,1.74861179990694,7
304,1,2,2,22,1.31479811482869,836122.766027,836124.1060028,0,1.80010369990487,2
305,1,2,6,19,1.31486761810463,836125.9061756,836127.2496089,0,1.48935709998477,5
306,1,1,1,9,1.71479529288118,836128.7390373,836130.4810781,0,1.4248857999919,1
307,1,2,8,4,1.11464956647482,836131.9060354,836133.0479135,0,1.62113700003829,9
308,1,1,9,10,1.06974050188527,836134.6691224,836135.7628471,0,1.6770101999864,9
309,1,2,1,20,1.92378173127622,836137.4400813,836139.3921645,0,2.18488549999893,1
310,1,1,1,5,1.17252550909017,836141.5771202,836142.7792403,0,1.50169780000579,2
311,1,1,2,8,1.27150147867992,836144.2810089,836145.5781537,0,1.22478619997855,3
312,1,2,3,14,1.09906077605844,836146.8030105,836147.9258441,0,2.11211620003451,3
313,1,2,2,10,1.99463833841615,836150.0380324,836152.0564425,0,2.04949690005742,3
314,1,2,8,3,1.80586177732427,836154.1060111,836155.9396885,0,2.16524599993136,7
315,1,1,3,22,1.01610894078443,836158.1050147,836159.1482692,0,2.64680999994744,2
316,1,2,8,20,1.40353063450474,836161.7951497,836163.2250043,0,2.23510799999349,8
317,1,1,4,6,1.09996744770634,836165.4605044,836166.5894431,0,1.7105128999101,5
318,1,2,3,20,1.88756901091168,836168.300029,836170.2124877,0,2.85147829994094,3
319,1,1,7,20,1.73336364577985,836173.0640441,836174.8219794,0,2.22398150002118,7
320,1,1,3,19,1.56804465017858,836177.0460322,836178.6388034,0,2.15617810003459,4
321,1,2,1,7,1.22176064666123,836180.7950563,836182.044375,0,2.51747339998838,2
322,1,1,6,17,1.65611377928184,836184.562025,836186.2462073,0,2.16973249998409,5
323,1,2,3,19,1.22345607115609,836188.4160132,836189.6580297,0,2.61108679999597,4
324,1,2,9,9,1.88619966442005,836192.2693494,836194.1823502,0,1.11572460003663,9
325,3,2,5,3,1.66068473420447,836195.2981506,836196.9854403,0,NaN,None
326,1,2,2,18,1.97825975702842,836200.9861467,836202.986475,0,2.18051390000619,3
327,1,2,1,14,1.98819131364464,836205.1670593,836207.1811346,0,1.7098655999871,2
328,1,2,7,3,1.95060209235752,836208.8910689,836210.8677294,0,3.70433869992848,7
329,1,1,9,13,1.56269129619718,836214.5721789,836216.1640186,0,2.75097629998345,7
330,1,2,8,21,1.42466374193175,836218.915065,836220.3660256,0,2.19507040001918,8
331,1,1,5,10,1.39466457855093,836222.5613567,836223.9825818,0,1.7038329000352,5
332,1,1,2,11,1.83677694272193,836225.6868147,836227.5529002,0,2.03753760003019,3
333,1,1,7,8,1.08940025522971,836229.5907927,836230.7080084,0,3.00102589989547,8
334,1,1,1,19,1.81595464696664,836233.7091041,836235.5497382,0,1.66027210000902,4
335,1,1,7,16,1.18286162440965,836237.2100793,836238.4138671,0,1.49915960000362,7
336,1,2,5,15,1.94374324670513,836239.9130993,836241.8857389,0,2.01827419991605,5
337,1,1,7,7,1.84666701184793,836243.9040846,836245.7777513,0,3.0263724999968,6
338,1,2,7,2,1.91228987770044,836248.8041988,836250.7449637,0,1.99827980005648,7
339,1,1,5,16,1.0525892072156,836252.7434581,836253.8199733,0,2.0392259999644,5
340,1,1,8,17,1.32843786481863,836255.8595765,836257.2156774,0,2.92429029999766,8
341,1,1,9,18,1.64983633052849,836260.1401514,836261.8178441,0,2.67417110002134,8
342,1,2,1,19,1.24620729494451,836264.4921045,836265.7642655,0,2.96575380000286,4
343,1,2,8,8,1.91279885012427,836268.7300898,836270.6734744,0,2.29653210006654,7
344,1,1,4,10,1.46004128869921,836272.9700779,836274.4548897,0,3.14922859997023,4
345,1,1,5,12,1.19707265195842,836277.6041908,836278.8273424,0,0.969250699970871,5
346,1,2,6,14,1.23843217472495,836279.7974021,836281.0653,0,0.924008299945854,5
347,1,1,1,17,1.31161574955675,836281.9901473,836283.3258325,0,1.40928180003539,2
348,1,2,2,14,1.84547981731214,836284.7352909,836286.6036841,0,1.65276199998334,3
349,1,2,1,3,1.46153526359624,836288.2581669,836289.7486474,0,1.0284876000369,3
350,1,1,6,12,1.44767824506402,836290.7774036,836292.2536605,0,1.48442209989298,5
351,1,2,1,4,1.54453081370335,836293.7381894,836295.3074818,0,2.08575870003551,3
352,1,1,6,3,1.5715968624887,836297.3934623,836298.9913672,0,2.59069320000708,5
353,1,1,5,6,1.56987140218356,836301.5823081,836303.1808643,0,1.12115779996384,5
354,1,2,5,13,1.74295553586135,836304.3020925,836306.0754333,0,0.95461160002742,5
355,1,1,2,20,1.45880768845121,836307.030121,836308.5149479,0,1.93153040006291,2
356,1,2,8,16,1.86068721562762,836310.4468118,836312.3276372,0,2.14373729994986,8
357,1,2,7,18,1.79690125215784,836314.4714477,836316.2978091,0,2.30119689996354,7
358,1,1,9,20,1.95305759123121,836318.5991474,836320.5773849,0,2.31158450001385,8
359,1,1,8,5,1.45870293680662,836322.8890909,836324.3732346,0,2.37781040009577,9
360,1,1,3,11,1.70657949320963,836326.7511164,836328.4828083,0,3.04854109999724,4
361,1,2,9,13,1.95517869124943,836331.5314801,836333.5131231,0,2.74590519990306,8
362,1,2,5,7,1.2126839839068,836336.2594902,836337.4960158,0,1.87003819993697,5
363,1,1,4,9,1.7470010002355,836339.366125,836341.1386995,0,2.60438200004864,4
364,1,1,7,4,1.5096940574995,836343.7431532,836345.2786449,0,3.07239850005135,8
365,1,2,3,5,1.24746439706032,836348.3511171,836349.6240926,0,2.52797210006975,4
366,1,2,1,9,1.83095057828948,836352.1521352,836354.0107236,0,2.5093435999006,2
367,1,2,4,20,1.50580357710942,836356.5201398,836358.0517242,0,3.49817549996078,4
368,1,2,9,11,1.11953394051209,836361.5500946,836362.6957432,0,0.981409400003031,9
369,1,2,8,15,1.06140062803613,836363.6774337,836364.7636401,0,0.836456599994563,9
370,1,2,3,6,1.77467646039672,836365.6001664,836367.3986355,0,2.20844770001713,4
371,1,1,9,21,1.18304490760691,836369.6071541,836370.814396,0,1.83066800003871,8
372,1,1,8,3,1.02271077840334,836372.6451337,836373.6916871,0,2.08654280006886,7
373,1,2,9,6,1.00770487839059,836375.7787159,836376.8128932,0,1.43720610009041,8
374,1,1,2,5,1.76938210438706,836378.2504333,836380.044021,0,2.49605670000892,3
375,1,1,3,12,1.88116098055684,836382.5402935,836384.4464909,0,2.99355839996133,3
376,1,1,7,14,1.25689145169607,836387.4402814,836388.7245918,0,1.87452149996534,7
377,1,2,1,8,1.62377522414375,836390.5995152,836392.2525945,0,3.28850710007828,2
378,1,2,3,15,1.23941849985006,836395.541173,836396.8071912,0,1.60990909999236,2
379,1,1,7,2,1.95180503877661,836398.4171724,836400.3956934,0,2.93838870001491,7
380,1,2,5,16,1.75175536667699,836403.3341543,836405.1114946,0,2.06672400003299,5
381,1,1,1,2,1.42110583919001,836407.1784859,836408.6270588,0,3.49402880005073,3
382,1,1,8,20,1.9014981514746,836412.1211582,836414.0486812,0,2.75738510000519,7
383,1,1,4,22,1.94455959160542,836416.8063242,836418.7769875,0,1.62524039996788,4
384,1,1,8,13,1.09749389174821,836420.4022995,836421.5291996,0,3.00086649996229,6
385,1,2,5,12,1.88713689766682,836424.5301394,836426.4445145,0,1.70766780001577,5
386,1,2,1,13,1.90286329837419,836428.152253,836430.0788266,0,2.26061510003638,3
387,1,2,5,10,1.15821044865608,836432.3402631,836433.5240545,0,1.22812320000958,5
388,1,2,9,10,1.7332820157989,836434.7522412,836436.5112598,0,3.07886119990144,7
389,1,2,7,15,1.13913177270182,836439.5901924,836440.7587647,0,1.52735170000233,8
390,1,2,1,1,1.46152914349794,836442.2861874,836443.7741128,0,1.66101289994549,2
391,1,2,2,4,1.73389117559641,836445.4351951,836447.1957416,0,2.88138569996227,3
392,1,1,7,21,1.00302578151385,836450.0771996,836451.1051019,0,2.09605200006627,8
393,1,2,3,12,1.17067206698673,836453.2014968,836454.3999734,0,2.01020929997321,4
394,1,2,9,15,1.99107286389322,836456.4102568,836458.4269352,0,1.51118849997874,9
395,1,2,9,20,1.11109038685173,836459.9381961,836461.0751138,0,2.03804050001781,8
396,1,1,5,20,1.40204526645538,836463.1132248,836464.5442737,0,1.88986090000253,5
