ID,State,Position ID,Morph Step,Face Person,ITI,Trial_Onset,Stim_Onset,Stim_Offset,RT,Answer
1,1,1,7,2,1.43657869145408,265484.7668815,265486.2161486,0,1.39124770002672,7
2,1,2,2,16,1.79612764529133,265487.6089139,265489.4165273,0,1.4707312999526,3
3,1,1,5,10,1.53569683072778,265490.8880372,265492.4345515,0,1.61281489999965,5
4,1,2,9,19,1.62717806294644,265494.0486255,265495.6860353,0,1.47335889999522,8
5,1,1,5,14,1.40789553410533,265497.1612457,265498.5788504,0,1.43661590002012,5
6,1,1,7,14,1.60647020395294,265500.0159432,265501.6329363,0,1.36647720000474,7
7,1,1,4,6,1.794473632726,265502.9996126,265504.8050069,0,1.44213570002466,5
8,1,1,7,11,1.44597141590415,265506.2472705,265507.7054421,0,1.36589030001778,7
9,1,2,5,13,1.04306145509328,265509.0714439,265510.1256961,0,1.33027310000034,4
10,1,2,2,8,1.9258249363912,265511.456093,265513.3928305,0,1.19838110002456,2
11,1,2,2,13,1.06267961920946,265514.5913278,265515.6651677,0,1.61410150001757,2
12,1,1,3,2,1.4621017271275,265517.2794226,265518.752741,0,1.17455550003797,3
13,1,2,1,20,1.90104503817341,265519.9274049,265521.8399148,0,0.887355599959847,1
14,1,2,2,6,1.78689143303789,265522.7273819,265524.5241199,0,1.34694729995681,2
15,1,2,4,7,1.87606698845954,265525.8711718,265527.7587041,0,1.40841010003351,5
16,1,1,4,1,1.46951631243227,265529.167239,265530.6471489,0,1.2402573999716,4
17,1,2,6,4,1.83868387126208,265531.8875627,265533.7382789,0,1.48482360003982,6
18,1,2,8,13,1.57740298707402,265535.2232536,265536.8108308,0,1.35640029999195,7
19,1,2,5,4,1.34542600330776,265538.1673711,265539.5231481,0,1.31617000000551,6
20,1,2,1,2,1.68304667348426,265540.8394546,265542.5340716,0,1.11311269999715,3
21,1,2,7,8,1.61395608260413,265543.6473178,265545.2713057,0,1.21611520001898,8
22,1,1,9,5,1.40409121652427,265546.4877962,265547.9051497,0,0.878006700018886,9
23,1,1,3,10,1.50255659274742,265548.7832762,265550.296549,0,1.46263439999893,4
24,1,1,2,3,1.32160560547484,265551.7592881,265553.0912912,0,0.979910399997607,3
25,1,1,7,9,1.74644544339612,265554.0713438,265555.8290848,0,1.59371250000549,7
26,1,1,5,16,1.65347853403265,265557.4228979,265559.0881007,0,1.3749673999846,5
27,1,2,2,5,1.44788102879041,265560.4631733,265561.9216763,0,1.41315029998077,3
28,1,2,8,9,1.14245889538883,265563.3349565,265564.4887869,0,1.35005479998654,8
29,1,1,4,8,1.04378352302497,265565.8389544,265566.8941339,0,1.48086730000796,7
30,1,2,4,18,1.3890107748008,265568.3751048,265569.7756651,0,2.14344079996226,4
31,1,1,9,7,1.41208600286279,265571.9192416,265573.3424415,0,1.24068590003299,9
32,1,1,7,8,1.34761781054465,265574.5832729,265575.941121,0,1.05785810004454,8
33,1,1,3,4,1.34112425981945,265576.9991244,265578.349844,0,1.28093479998643,5
34,1,1,5,2,1.90062297855054,265579.6309927,265581.5430323,0,1.08795159996953,5
35,1,1,9,11,1.47086911785205,265582.6311126,265584.1119749,0,1.11975179996807,8
36,1,1,4,2,1.802856402618,265585.2320777,265587.0463348,0,1.20853399997577,5
37,1,2,1,9,1.41718526610514,265588.2549944,265589.6822855,0,1.40461570001207,1
38,1,2,4,16,1.95087997911992,265591.0870091,265593.0490133,0,1.56613930000458,4
39,1,2,9,10,1.85815842336584,265594.6152876,265596.484391,0,1.37061220000032,7
40,1,2,3,2,1.91789167349039,265597.8551191,265599.7845577,0,1.25440140004503,4
41,1,2,9,3,1.78694416231572,265601.0391105,265602.8368704,0,1.27412890002597,9
42,1,1,4,7,1.68023484537386,265604.1111413,265605.8025961,0,1.52417369995965,5
43,1,2,2,20,1.12865618283526,265607.3268979,265608.4681517,0,1.20282180001959,1
44,1,1,1,14,1.72819000226198,265609.6711351,265611.4100142,0,0.812952299951576,1
45,1,1,6,15,1.06878855319225,265612.2231206,265613.302926,0,1.30399060004856,5
46,1,2,1,18,1.8569026532612,265614.6070784,265616.4745633,0,1.08430539997062,2
47,1,1,6,5,1.26445526389396,265617.5589729,265618.8339961,0,1.33288950001588,5
48,1,1,3,9,1.51109103606984,265620.1669848,265621.6878242,0,1.45505439996487,3
49,1,1,3,8,1.00464445059984,265623.1431027,265624.1621438,0,1.36462680000113,4
50,1,2,1,10,1.09220408348032,265625.5269001,265626.6310915,0,1.27155459998176,3
51,1,1,6,13,1.32591995722565,265627.9027432,265629.2386579,0,1.28812159999507,5
52,1,2,3,1,1.18953770733311,265630.5269123,265631.7270975,0,1.54379109997535,3
53,1,2,7,11,1.47895908730873,265633.27103,265634.7616423,0,1.31690719997277,7
54,1,1,1,17,1.9429277458603,265636.0786699,265638.0313772,0,1.07950590003747,1
55,1,1,8,20,1.33783654426967,265639.1110195,265640.4599655,0,1.80286850000266,7
56,1,1,5,8,1.49347239452812,265642.2629601,265643.7670355,0,1.71974070003489,7
57,1,2,4,19,1.61166658783738,265645.4869077,265647.1102085,0,2.04051189997699,4
58,1,1,2,16,1.50400132872065,265649.1508552,265650.6653286,0,1.43729040003382,1
59,1,1,8,9,1.19832548380581,265652.1027848,265653.311379,0,1.07948979997309,8
60,1,2,8,14,1.21528468692715,265654.3910133,265655.6176155,0,1.28506010002457,8
61,1,2,1,3,1.47021911844065,265656.9028142,265658.3837155,0,1.15085159998853,2
62,1,2,3,16,1.87328415906213,265659.5347311,265661.4199636,0,1.36291690001963,4
63,1,2,8,22,1.43706945963439,265662.783014,265664.2304812,0,1.53597250004532,7
64,1,2,2,11,1.25468886487975,265665.76657,265667.031063,0,1.26371570001356,2
65,1,1,4,11,1.67961097560234,265668.2949182,265669.9854561,0,1.35701909998897,4
66,1,2,6,17,1.33865725021425,265671.3426117,265672.6930916,0,1.82562709995545,6
67,1,2,2,7,1.22996015312201,265674.518851,265675.7610822,0,1.49332559999311,3
68,1,1,3,18,1.33974522495161,265677.254545,265678.6045274,0,1.19405590003589,3
69,1,1,4,10,1.59234545392663,265679.7987481,265681.400469,0,1.43823329999577,3
70,1,2,7,19,1.21005133128423,265682.8388296,265684.059777,0,1.3065920000081,7
71,1,2,6,15,1.52115659193423,265685.366493,265686.8992419,0,1.69135129998904,7
72,1,2,1,8,1.90128833292776,265688.5907463,265690.5037904,0,0.89439080003649,1
73,1,1,8,6,1.73614346311426,265691.398285,265693.145041,0,1.63755640003365,7
74,1,2,6,18,1.43635982857642,265694.7827312,265696.230584,0,1.57582919998094,6
75,1,2,7,20,1.15716568185433,265697.8065429,265698.9754814,0,1.96711560001131,6
76,1,1,4,4,1.39437146005385,265700.9427274,265702.3481218,0,2.79436040000292,5
77,1,2,4,12,1.20274259821981,265705.1426147,265706.3562927,0,3.21015520003857,4
78,1,2,6,6,1.06077394643149,265709.5665796,265710.6375814,0,1.76928479998605,6
79,1,2,1,5,1.49960745063651,265712.4070847,265713.9180001,0,0.888328699977137,1
80,1,1,7,19,1.79788695730062,265714.8064632,265716.6140178,0,1.44029179995414,7
81,1,2,1,1,1.65971745133429,265718.0544152,265719.7247119,0,0.881799600028899,1
82,1,1,1,1,1.28914170602279,265720.6066542,265721.9061603,0,0.7323281999561,1
83,1,1,1,5,1.27113660503447,265722.638646,265723.9204113,0,0.822068500041496,1
84,1,2,1,13,1.31795315937176,265724.7426217,265726.0715786,0,0.918840099999215,2
85,1,1,2,18,1.87630545477323,265726.9905666,265728.8773121,0,0.712902200000826,1
86,1,2,7,9,1.99617128542878,265729.5903572,265731.5982268,0,1.36022259999299,7
87,1,1,2,1,1.5451785834416,265732.9585886,265734.5151588,0,1.12320979998913,2
88,1,1,9,3,1.11661849087153,265735.6385097,265736.766082,0,1.55238080001436,7
89,1,1,6,20,1.01218103837523,265738.3186039,265739.341351,0,1.45706260000588,6
90,1,2,3,22,1.68354578718082,265740.7985185,265742.4938833,0,1.28044960001716,2
91,1,2,8,1,1.27410726630173,265743.7744588,265745.0602433,0,1.4820417999872,7
92,1,1,9,9,1.30839837782352,265746.5424061,265747.8613178,0,0.904968499962706,8
93,1,1,7,6,1.24749212976768,265748.7663922,265750.025741,0,1.48457009997219,7
94,1,1,7,12,1.32342150573675,265751.5104152,265752.8478548,0,1.47854879999068,8
95,1,2,3,17,1.25784542527904,265754.3265721,265755.5950022,0,1.57934950001072,3
96,1,2,4,11,1.73907022126177,265757.1744922,265758.9246863,0,2.00163960002828,5
97,1,1,6,19,1.05261938203084,265760.926434,265761.9893851,0,1.47270429995842,7
98,1,2,4,10,1.52334294265608,265763.4621924,265764.995532,0,1.24261100002332,3
99,1,2,9,11,1.11993985491563,265766.238305,265767.3690404,0,1.46080729999812,8
100,1,1,9,12,1.71149771656856,265768.8300565,265770.5554847,0,2.43479729996761,7
101,1,2,3,19,1.59155521123738,265772.9903937,265774.5940222,0,1.90001510002185,4
102,1,2,4,17,1.28499814787882,265776.4942543,265777.7901922,0,2.56808659998933,5
103,1,1,6,1,1.86458022807413,265780.3584397,265782.2340378,0,1.65214150003158,3
104,1,2,8,19,1.25374834936776,265783.8863194,265785.1509763,0,1.42325559997698,6
105,1,1,5,18,1.22847960446237,265786.5743521,265787.8129506,0,2.37704880000092,5
106,1,2,2,15,1.233699146594,265790.1901098,265791.433633,0,0.804315899964422,1
107,1,2,5,12,1.35210921299756,265792.2381293,265793.6026349,0,1.74755219998769,4
108,1,2,6,5,1.57782950788231,265795.3503323,265796.9393433,0,1.99483460001647,6
109,1,1,8,18,1.61419404056422,265798.9342809,265800.5589645,0,1.4951318000094,7
110,1,1,5,3,1.11169475539041,265802.0542526,265803.1766433,0,1.86143749998882,4
111,1,1,6,8,1.11799826296397,265805.0382134,265806.1659373,0,1.44036919996142,7
112,1,2,1,15,1.86615964444989,265807.6066365,265809.4851008,0,1.00080129998969,1
113,1,1,3,19,1.15543734813265,265810.4860386,265811.6533058,0,1.92058249999536,5
114,1,2,5,6,1.31155264405633,265813.5740392,265814.8967369,0,1.89323670003796,3
115,1,1,4,22,1.09312988399995,265816.7901022,265817.8928434,0,1.34505730000092,3
116,1,1,8,22,1.83185169991252,265819.238006,265821.0805231,0,1.22928450000472,7
117,1,2,8,18,1.67844916667241,265822.3099377,265823.9987068,0,1.18321689998265,7
118,1,1,2,5,1.99909626182999,265825.1820561,265827.1924437,0,1.84558030002518,3
119,1,2,6,9,1.15111188273282,265829.0381295,265830.2006504,0,1.86932910000905,7
120,1,2,6,21,1.60519488067656,265832.0701338,265833.6860891,0,1.78396759997122,4
121,1,2,6,10,1.40404473095441,265835.4701638,265836.8853469,0,1.32871710002655,5
122,1,1,1,19,1.69375580506094,265838.2141991,265839.9193655,0,1.28652190003777,2
123,1,2,4,1,1.35518798774865,265841.2061005,265842.5720708,0,2.32176199997775,4
124,1,2,9,1,1.52447273678632,265844.8939643,265846.4294717,0,1.59239280002657,9
125,1,2,8,17,1.82606218165268,265848.0219794,265849.8593143,0,1.62669960001949,8
126,1,1,1,7,1.79173637366938,265851.4861545,265853.2892056,0,0.980482599989045,1
127,1,1,9,14,1.52076749890668,265854.2698218,265855.800991,0,1.38054509996437,9
128,1,1,8,10,1.59621159569799,265857.1816127,265858.7885625,0,1.0089139000047,8
129,1,2,7,13,1.40081233875242,265859.7975835,265861.2088285,0,1.10890449996805,8
130,1,2,8,7,1.35321988711064,265862.3178674,265863.6813891,0,1.34031970001524,7
131,1,1,3,13,1.02673872739202,265865.0218865,265866.0591238,0,1.69066879997263,4
132,1,1,8,13,1.27115780765979,265867.7498826,265869.0327885,0,1.47687579999911,7
133,1,1,5,9,1.7691374418733,265993.4999325,265995.2848564,0,1.58441020001192,5
134,1,1,2,17,1.05904096046856,265996.8707197,265997.9399408,0,1.04138680000324,3
135,1,1,7,5,1.10185238443348,265998.9814319,266000.0938214,0,1.19151849998161,6
136,1,2,2,10,1.77404627925515,266001.2854678,266003.0707617,0,1.29459400003543,3
137,1,1,7,7,1.77076136082399,266004.365458,266006.1471867,0,1.16205809998792,7
138,1,2,5,11,1.29954469462673,266007.3093692,266008.6191717,0,1.17811680003069,6
139,1,1,3,20,1.9621198672688,266009.797389,266011.7710806,0,1.19429770001443,3
140,1,1,7,17,1.42053507135487,266012.9655277,266014.396801,0,1.45634149998659,7
141,1,2,3,9,1.58243967294644,266015.8532693,266017.4457799,0,1.20725829998264,3
142,1,2,7,15,1.99618603309858,266018.6531582,266020.659724,0,1.40146499994444,7
143,1,2,3,4,1.67672048531188,266022.0613152,266023.7491714,0,1.86393760005012,5
144,1,1,7,10,1.94541103217949,266025.6132662,266027.570081,0,1.77120610000566,6
145,1,2,8,4,1.54412920460595,266029.3414424,266030.8962403,0,1.21299970004475,8
146,1,2,9,20,1.34690931237349,266032.1093898,266033.4665545,0,0.962508000025991,9
147,1,2,1,6,1.984266271797,266034.4291924,266036.4254994,0,1.52360219997354,3
148,1,2,7,1,1.82010311470812,266037.9492052,266039.780011,0,1.48091570002725,3
149,1,2,1,4,1.50403094871136,266041.2610531,266042.7759677,0,1.96511210000608,4
150,1,1,9,13,1.63731111461847,266044.7411847,266046.3883859,0,1.4566517000203,7
151,1,1,7,16,1.49898050167805,266047.8451636,266049.3555343,0,1.01758620003238,7
152,1,1,9,16,1.92504448718137,266050.3732757,266052.3097635,0,0.975077599985525,8
153,1,2,2,19,1.78933786053896,266053.2849611,266055.0871182,0,1.62989099998958,3
154,1,2,8,15,1.56160268589153,266056.7172036,266058.2893332,0,1.01163859997177,9
155,1,1,3,17,1.32517535191931,266059.3010879,266060.6366086,0,1.14439980004681,2
156,1,1,2,9,1.37079496084066,266061.7811146,266063.1627176,0,0.842361700022593,1
157,1,2,2,1,1.2402979500561,266064.0052392,266065.2567526,0,1.22022169997217,1
158,1,1,6,14,1.4167860907204,266066.4770815,266067.9046341,0,2.20436960004736,6
159,1,1,7,4,1.87576360310062,266070.1092158,266071.9964966,0,1.47238400002243,9
160,1,2,7,7,1.55639445151317,266073.4690735,266075.0365657,0,1.04032599995844,8
161,1,1,5,20,1.06538763482601,266076.0770103,266077.1522154,0,1.80468820000533,5
162,1,1,5,19,1.23143562343104,266078.9570377,266080.1997451,0,1.58102240000153,4
163,1,2,7,4,1.10409230217176,266081.7809213,266082.8957388,0,0.973226899979636,8
164,1,2,2,22,1.58789718661222,266083.8691655,266085.4680492,0,0.760926199960522,1
165,1,2,7,16,1.48851230616853,266086.2291157,266087.7285855,0,1.43635920004454,6
166,1,2,6,7,1.16281333182544,266089.1650882,266090.3380502,0,1.61089149996405,6
167,1,1,2,20,1.61441932161209,266091.9490812,266093.5742853,0,1.24657479999587,2
168,1,1,6,11,1.05651102003056,266094.8209865,266095.8873132,0,1.54147560003912,6
169,1,2,9,13,1.77355731797625,266097.4289226,266099.2126799,0,1.59215869999025,8
170,1,1,9,21,1.30948428002518,266100.8050659,266102.1256598,0,1.62331009999616,7
171,1,2,9,2,1.70882163759496,266103.7491397,266105.4685191,0,1.31208990002051,8
172,1,2,8,10,1.16511825797235,266106.7806834,266107.9568125,0,1.27202239999315,7
173,1,2,1,19,1.93178072061883,266109.228964,266111.1710353,0,1.06583300000057,3
174,1,1,3,12,1.56030821022697,266112.2369889,266113.8087087,0,1.10778040002333,2
175,1,2,4,15,1.03867030864176,266114.9165837,266115.9662603,0,1.49456530000316,3
176,1,2,5,22,1.16681416846264,266117.4609429,266118.6387674,0,1.66198859998258,4
177,1,1,2,22,1.36905130014555,266120.3008821,266121.6812655,0,1.25935199996457,3
178,1,1,1,3,1.3723941236752,266122.9407438,266124.3233797,0,0.737188099999912,2
179,1,2,1,17,1.06716486738831,266125.0607071,266126.1395847,0,0.793007700005546,1
180,1,2,9,16,1.99944803121559,266126.9327374,266128.9417443,0,1.36705239996081,7
181,1,2,3,10,1.37159356811934,266130.3089377,266131.6919942,0,1.7046519999858,4
182,1,1,2,12,1.83677252676863,266133.3967923,266135.2447902,0,1.19200729997829,2
183,1,1,5,11,1.03623131523187,266136.436933,266137.4838817,0,1.45664849999594,5
184,1,2,6,12,1.3608729892995,266138.9406488,266140.312237,0,1.15644520003116,7
185,1,2,8,8,1.15484251403783,266141.4688366,266142.634742,0,1.14581249997718,8
186,1,1,5,6,1.82536943223664,266143.7807141,266145.6174501,0,1.57926879997831,4
187,1,1,6,22,1.69680745989297,266147.1968505,266148.9047814,0,0.963846900034696,4
188,1,2,9,4,1.0765072283447,266149.8687361,266150.9542996,0,1.36233910004376,7
189,1,2,2,12,1.16122373672614,266152.3167619,266153.4887001,0,1.37196479999693,2
190,1,2,5,9,1.85947218398953,266154.8607983,266156.7312641,0,2.15347219997784,5
191,1,1,2,8,1.30966657685055,266158.8848905,266160.2052544,0,1.1913121000398,3
192,1,2,5,17,1.93389294671116,266161.3966671,266163.3430094,0,1.55735560000176,5
193,1,2,4,3,1.56043400890324,266164.9004661,266166.4710714,0,1.37341860000743,5
194,1,2,2,17,1.05118871838048,266167.8446332,266168.9064494,0,1.37820669997018,3
195,1,1,2,6,1.27468613458074,266170.2847733,266171.5699579,0,1.29070559999673,3
196,1,1,8,21,1.39070335151158,266172.8608126,266174.2663196,0,1.41013640002348,7
197,1,1,3,16,1.88785744025139,266175.676586,266177.575764,0,1.22893089998979,4
198,1,1,3,14,1.12562480500947,266178.8048399,266179.9426384,0,1.0219761999906,3
199,1,1,9,10,1.1184363690403,266180.9647481,266182.093727,0,1.70278380002128,8
200,1,1,7,18,1.00336211362779,266183.796637,266184.8107313,0,1.577917000046,7
201,1,1,9,2,1.93961883602547,266186.3887869,266188.3389946,0,1.27362049999647,7
202,1,1,5,17,1.39014240243548,266189.6127584,266191.0123652,0,1.37618830002612,5
203,1,2,1,7,1.04085354877657,266192.3887106,266193.4397575,0,1.36468579998473,2
204,1,2,4,4,1.65476383107585,266194.8045691,266196.4697243,0,1.59064799995394,5
205,1,1,1,9,1.74465037346535,266198.0604944,266199.8159268,0,1.02842300001066,1
206,1,1,8,16,1.77235039267835,266200.8444714,266202.627536,0,1.88096000003861,7
207,1,1,3,5,1.84167516469628,266204.5086276,266206.3624923,0,1.63399200001732,5
208,1,1,5,12,1.59917076250389,266207.9966287,266209.6059996,0,1.13446799997473,4
209,1,2,4,2,1.31975185294251,266210.7405912,266212.0718616,0,1.62040549999801,3
210,1,1,3,15,1.58655965083212,266213.6923853,266215.2916993,0,1.29676340002334,2
211,1,2,8,16,1.69672167811031,266216.5886012,266218.2965484,0,1.60385999997379,7
212,1,2,5,2,1.82891919106126,266219.9005444,266221.7409775,0,1.60735000000568,4
213,1,1,9,6,1.78448944870818,266223.3484704,266225.1448089,0,1.35559489997104,7
214,1,1,2,13,1.23066424336091,266226.5005397,266227.7432744,0,1.22913789999438,3
215,1,2,9,5,1.66785311571893,266228.9725438,266230.6520348,0,1.42438160005258,7
216,1,2,5,14,1.54138329676522,266232.0765469,266233.6280779,0,1.32840110000689,4
217,1,2,3,21,1.56651053818022,266234.9566337,266236.5330207,0,0.999284100020304,3
218,1,1,5,7,1.71903689605954,266237.5324534,266239.2614984,0,1.71879899996566,6
219,1,1,4,18,1.12758572259982,266240.9804266,266242.1183465,0,1.35797210002784,3
220,1,1,8,12,1.02040789111923,266243.4764378,266244.5073331,0,1.66494419996161,8
221,1,2,4,5,1.21342656066584,266246.172412,266247.3968472,0,3.2156232999987,5
222,1,2,1,21,1.69283208573662,266250.6125958,266252.3165824,0,1.10342920001131,2
223,1,2,9,18,1.32922479231586,266253.4201246,266254.7598605,0,1.27654579997761,7
224,1,1,3,11,1.34102691059591,266256.0365328,266257.3880225,0,1.99215110001387,5
225,1,1,1,4,1.66637587762949,266259.3802926,266261.0565703,0,1.72364609997021,4
226,1,1,1,2,1.26071303447501,266262.7803339,266264.0524507,0,0.919862099981401,1
227,1,2,9,7,1.11514747946063,266264.9724456,266266.0983306,0,1.24964819999877,7
228,1,1,4,12,1.13175238719704,266267.3480867,266268.493752,0,1.19038470002124,4
229,1,2,4,22,1.37389460506096,266269.6842783,266271.0691628,0,2.21504620002815,4
230,1,2,8,2,1.34633291428717,266273.2843421,266274.6424421,0,1.20133830001578,7
231,1,1,4,15,1.25799605192839,266275.8438959,266277.1120102,0,1.26022669998929,3
232,1,2,7,3,1.69535063760744,266278.3723584,266280.0784974,0,1.58160120004322,6
233,1,2,8,3,1.03211521207506,266281.660222,266282.7050986,0,1.14700150000863,7
234,1,1,8,2,1.4627482786956,266283.8523055,266285.3258608,0,1.69428250001511,7
235,1,1,5,5,1.79512836906908,266287.0202612,266288.8270931,0,1.55303200002527,5
236,1,1,9,15,1.44007186520694,266290.380229,266291.8350274,0,1.0331448999932,9
237,1,2,7,21,1.31020222185647,266292.8682852,266294.188756,0,1.5913440999575,7
238,1,2,7,5,1.96878383088478,266295.7802602,266297.7591948,0,1.49295869999332,7
239,1,2,9,14,1.87964707612671,266299.2522805,266301.1420904,0,1.31795290001901,9
240,1,1,1,12,1.30495248075016,266302.4601409,266303.7753041,0,1.07679139997344,1
241,1,2,7,22,1.94941434891122,266304.8522193,266306.8115371,0,1.12045839999337,3
242,1,2,2,21,1.86396704356054,266307.9321519,266309.8070691,0,0.852797300030943,2
243,1,1,8,14,1.96560409643299,266310.6600013,266312.6369307,0,1.41532150004059,7
244,1,1,2,21,1.28241153676404,266314.0524483,266315.3452556,0,1.21872980002081,2
245,1,1,8,11,1.51567756431844,266316.5641321,266318.0908459,0,1.40917569998419,7
246,1,2,3,7,1.61433250054157,266319.5001202,266321.1258182,0,1.36604150000494,2
247,1,1,9,4,1.28520296382767,266322.4920686,266323.7885379,0,1.99921389995143,7
248,1,1,3,21,1.18284226816505,266325.7878538,266326.9818464,0,1.56615520000923,3
249,1,2,7,6,1.48228469781339,266328.5481073,266330.0412548,0,1.71468370000366,7
250,1,2,8,11,1.12463398273917,266331.7560755,266332.8916243,0,1.38435100001516,7
251,1,1,2,15,1.8124856233914,266334.2760914,266336.1007205,0,1.18318350001937,2
252,1,2,7,12,1.05727638880905,266337.2842019,266338.3521176,0,1.24379100004444,7
253,1,2,5,1,1.13600914707539,266339.5960505,266340.7432617,0,2.22047570004361,3
254,1,2,2,14,1.03771156476512,266342.9638599,266344.0112209,0,1.40870680002263,2
255,1,1,9,8,1.40569843756046,266345.4200315,266346.8366217,0,0.959144400025252,9
256,1,2,6,14,1.67564140531674,266347.7959132,266349.4818216,0,1.38603360002162,6
257,1,1,4,13,1.40696214247378,266350.868015,266352.285386,0,1.47051630000351,5
258,1,2,9,9,1.64626442348848,266353.7560294,266355.4140039,0,1.26172879996011,7
259,1,2,5,3,1.87451969312601,266356.6759046,266358.5601373,0,1.18722890003119,5
260,1,1,3,1,1.24645805290917,266359.7474622,266361.0047351,0,2.27916159998858,5
261,1,1,6,6,1.08231078462848,266363.2840424,266364.3770701,0,1.99458500003675,6
262,1,1,8,17,1.08955851043624,266366.3718058,266367.4718562,0,1.48373889998766,7
263,1,1,7,13,1.34714391547159,266368.9556929,266370.3128395,0,1.81884540000465,7
264,1,2,4,21,1.98588388739965,266372.1317831,266374.1292849,0,1.33849910000572,4
265,1,1,1,11,1.04805052284816,266953.0078898,266954.067038,0,1.45421430002898,3
266,1,2,6,22,1.93023967570813,266955.5213902,266957.4635219,0,1.42582559998846,7
267,1,2,4,8,1.34490419606839,266958.8894826,266960.2446444,0,1.11659779999172,7
268,1,1,9,18,1.3618357894201,266961.3613695,266962.7338923,0,1.21149379998678,8
269,1,2,8,21,1.59401901535021,266963.9454959,266965.550666,0,1.01055120001547,7
270,1,1,6,12,1.00805880981555,266966.5613956,266967.5806097,0,1.33274669997627,7
271,1,2,3,14,1.12090042774682,266968.9134587,266970.0444893,0,0.948841499979608,3
272,1,2,7,2,1.86947013652719,266970.9934432,266972.8740333,0,1.05541260004975,7
273,1,2,9,15,1.62594902338324,266973.9295701,266975.5660071,0,1.04328209999949,9
274,1,1,5,4,1.79493515805908,266976.6094003,266978.4162577,0,1.4330335999839,6
275,1,2,1,12,1.73640615379108,266979.8494182,266981.5959766,0,0.965331299987156,1
276,1,1,3,22,1.11376440439008,266982.5614164,266983.6848541,0,0.700488900009077,2
277,1,1,9,17,1.43750842530125,266984.3855292,266985.8326486,0,1.40838610002538,7
278,1,1,9,22,1.95296299675304,266987.2411737,266989.2058398,0,1.20352490001824,7
279,1,1,4,3,1.51081861203486,266990.4095916,266991.9300821,0,1.59113280003658,4
280,1,2,3,18,1.51507801150367,266993.5213419,266995.0469012,0,1.14661049999995,3
281,1,1,1,22,1.93232474264037,266996.1936193,266998.1373258,0,0.895714499987662,2
282,1,1,6,7,1.20892574833512,266999.0331464,267000.2528698,0,1.43648469995242,7
283,1,1,5,13,1.92866327457695,267001.6894698,267003.6297523,0,1.49149089999264,3
284,1,1,4,20,1.56883652967966,267005.1213646,267006.7014879,0,1.04349559999537,2
285,1,1,6,17,1.30863709406418,267007.7450963,267009.0637658,0,1.76927730004536,7
286,1,2,3,8,1.58251504226858,267010.8332494,267012.4258775,0,0.887077999999747,2
287,1,2,8,20,1.03329511827662,267013.3130776,267014.3569619,0,1.54022749996511,7
288,1,2,1,11,1.05234949924558,267015.8973323,267016.9599683,0,1.32928060000995,2
289,1,1,1,13,1.24017730789352,267018.2894289,267019.5416804,0,0.78746169997612,2
290,1,2,9,21,1.58142860950604,267020.3292866,267021.9208882,0,1.33606599998893,7
291,1,1,4,16,1.02986140045688,267023.2570435,267024.29718,0,1.76786429999629,3
292,1,1,6,3,1.55368908556662,267026.0651744,267027.6303624,0,1.5467952999752,3
293,1,2,3,11,1.47591042754783,267029.1772821,267030.664879,0,1.46416530001443,2
294,1,1,4,5,1.15521583177013,267032.1291395,267033.2955705,0,1.26545489998534,3
295,1,1,8,7,1.62458267674938,267034.5611438,267036.1964886,0,1.10053589998279,7
296,1,2,3,3,1.06957013592,267037.2971571,267038.3774837,0,0.815547899983358,3
297,1,1,7,15,1.43857171496961,267039.1931597,267040.6432278,0,1.35778339998797,7
298,1,2,6,8,1.31484776429525,267042.0011259,267043.327205,0,1.69785520003643,7
299,1,1,7,21,1.4444882181682,267045.0251643,267046.4832957,0,1.43770140002016,7
300,1,1,8,8,1.73246967613161,267047.9211185,267049.6632156,0,1.41766089998418,8
301,1,1,4,21,1.50607673944847,267051.0809878,267052.5985602,0,2.06646939995699,4
302,1,1,1,18,1.82294289407469,267054.6651549,267056.499555,0,0.757227800029796,2
303,1,1,1,8,1.1720349498517,267057.2569055,267058.4400929,0,0.888777699961793,2
304,1,2,3,5,1.8420286647387,267059.3290058,267061.1817332,0,3.59517200000118,4
305,1,1,4,14,1.76611577770351,267064.7770333,267066.5538589,0,1.59103170002345,5
306,1,2,2,4,1.19222848754338,267068.1450007,267069.3496816,0,1.89918120001676,5
307,1,1,8,4,1.82953904529597,267071.2489905,267073.0900038,0,1.23078290000558,7
308,1,2,6,16,1.49898756489624,267074.3208967,267075.8305546,0,2.40232860000106,4
309,1,2,6,1,1.85997451051197,267078.2329848,267080.10423,0,1.28860869997879,5
310,1,2,4,6,1.98619263604386,267081.3929552,267083.3913232,0,1.26555909996387,5
311,1,1,3,7,1.14686485902291,267084.657009,267085.8147107,0,1.29786930000409,4
312,1,2,2,18,1.04860825900223,267087.1127403,267088.1719038,0,1.26877890003379,2
313,1,2,6,11,1.94304118208656,267089.440818,267091.3949339,0,1.18996150000021,5
314,1,1,6,21,1.83166731871623,267092.5850324,267094.4272422,0,1.46157539996784,4
315,1,2,7,18,1.86813087871199,267095.888954,267097.7685355,0,0.936206499987748,4
316,1,1,2,2,1.55422191034473,267098.7048817,267100.2700564,0,1.17866219999269,3
317,1,1,1,15,1.8981115745439,267101.4488352,267103.3594364,0,0.745204999984708,2
318,1,2,3,13,1.29094404567447,267104.1048,267105.405872,0,2.13891590002459,4
319,1,1,5,15,1.0377204377868,267107.5449255,267108.5950418,0,0.965442100015935,2
320,1,2,5,18,1.37612245393029,267109.5605867,267110.9474561,0,0.756980299949646,3
321,1,1,8,15,1.41120205979902,267111.7046039,267113.1265441,0,1.06616510002641,8
322,1,2,2,3,1.3913865419896,267114.1928364,267115.5947644,0,0.845965999993496,2
323,1,1,9,19,1.66200721588884,267116.4408483,267118.1144347,0,1.34231400000863,7
324,1,1,2,4,1.69711453842338,267119.4568571,267121.1659439,0,1.50679359998321,4
325,1,1,9,1,1.87004590341192,267122.6728716,267124.55407,0,1.05463570001302,7
326,1,1,8,5,1.55036235687961,267125.608829,267127.1701453,0,1.03060310002184,7
327,1,2,4,14,1.05021770911833,267128.2008895,267129.2618398,0,1.21084830001928,4
328,1,2,9,22,1.61838128880635,267130.4728409,267132.1025121,0,1.26602199999616,7
329,1,1,4,17,1.26752007363012,267133.3686812,267134.646865,0,0.665827699995134,3
330,1,2,7,17,1.95772429793575,267135.3128421,267137.2824926,0,1.28615680005169,7
331,1,1,7,3,1.10647870945527,267138.5687856,267139.6856179,0,1.63501750002615,7
332,1,2,9,17,1.49167505456665,267141.3207566,267142.823521,0,0.729041200014763,8
333,1,2,9,12,1.02921875413111,267143.5527116,267144.5931761,0,1.74345790001098,8
334,1,1,6,18,1.45782025445911,267146.3367817,267147.8049935,0,1.17156919999979,4
335,1,2,5,15,1.65272325920882,267148.9766914,267150.6404754,0,1.20823269995162,3
336,1,2,6,19,1.96143850976864,267151.8488327,267153.8212538,0,1.88312630000291,5
337,1,2,1,22,1.10333182634124,267155.7045365,267156.8184425,0,1.43842609995045,1
338,1,1,7,20,1.08150691864764,267158.2569911,267159.3496976,0,1.56282059999648,7
339,1,1,2,14,1.02806635979159,267160.9126499,267161.9522447,0,1.30390589998569,2
340,1,2,9,8,1.10820602875402,267163.2562228,267164.3747851,0,0.705691799987108,8
341,1,2,3,15,1.55473489485295,267165.0805828,267166.6465696,0,0.762082900037058,2
342,1,1,8,1,1.09934325696457,267167.4091252,267168.5198452,0,1.54469369997969,7
343,1,2,3,12,1.27402496195532,267170.0646561,267171.3510592,0,0.745270000013988,3
344,1,2,5,21,1.66304720266298,267172.0964368,267173.7701148,0,1.7262791999965,5
345,1,2,8,5,1.17469095183809,267175.4964935,267176.6867391,0,1.33128089999082,7
346,1,2,1,14,1.19489006945918,267178.0181196,267179.2237814,0,0.720726199971978,2
347,1,2,9,6,1.25771574521748,267179.9446157,267181.2134817,0,1.08320290001575,7
348,1,1,2,10,1.02812084617745,267182.2967949,267183.3360069,0,0.752503299969248,3
349,1,2,2,9,1.08414875388709,267184.0886377,267185.1831968,0,0.897064200020395,2
350,1,1,5,22,1.94117930200111,267186.0803651,267188.0329817,0,1.65518340002745,5
351,1,1,2,19,1.42517754703838,267189.6882748,267191.1241288,0,0.804265199985821,3
352,1,1,1,20,1.06505958542003,267191.9285344,267193.0041035,0,0.804109600023367,2
353,1,1,4,19,1.20128276698246,267193.808326,267195.0194075,0,1.35697289998643,5
354,1,2,8,12,1.97786376115397,267196.3765563,267198.3659312,0,1.31425620004302,7
355,1,2,6,13,1.02600353909135,267199.6803809,267200.717726,0,1.69065190001857,5
356,1,1,8,19,1.23340699465377,267202.4085159,267203.6524986,0,1.29990240000188,7
357,1,2,6,3,1.42429030971586,267204.9525399,267206.3884456,0,1.26748570002383,5
358,1,2,6,2,1.79923946940143,267207.6559955,267209.4664365,0,1.97361909999745,7
359,1,2,7,14,1.15883083809192,267211.4402602,267212.6095204,0,0.895694400009234,8
360,1,2,5,16,1.58767959554408,267213.5056501,267215.1051938,0,1.10290960001294,4
361,1,1,9,20,1.8558902197309,267216.208258,267218.0748728,0,1.07744400005322,8
362,1,2,3,20,1.53487218984242,267219.1524146,267220.6986685,0,1.78957680001622,4
363,1,1,1,6,1.49272262045126,267222.4883482,267223.9919861,0,0.904413500044029,2
364,1,1,6,16,1.61540119915554,267224.8965032,267226.5225092,0,1.25381330004893,5
365,1,2,5,19,1.40326481705372,267227.7764729,267229.1902068,0,1.10596379998606,5
366,1,2,4,9,1.64301429303254,267230.2962847,267231.9495447,0,1.65848109999206,4
367,1,1,4,9,1.86071098971664,267233.6081219,267235.4800892,0,0.983971000008751,4
368,1,2,5,10,1.87413441124797,267236.4641675,267238.3504548,0,1.61759869998787,4
369,1,1,6,4,1.55163549579282,267239.9682617,267241.5300201,0,1.03833929996472,8
370,1,2,1,16,1.18168466971072,267242.5684973,267243.7604851,0,1.03150680003455,2
371,1,1,6,10,1.07790372216825,267244.792072,267245.8803171,0,1.31992070004344,3
372,1,1,1,21,1.08073818479347,267247.2003454,267248.2916421,0,0.900561799993739,2
373,1,2,3,6,1.08791971129063,267249.1923402,267250.29081,0,1.725071199995,4
374,1,1,7,22,1.97352176678678,267252.0159963,267254.0011339,0,1.70273419999285,5
375,1,1,5,1,1.9963269893274,267255.7039937,267257.7120999,0,1.66388539999025,4
376,1,1,1,10,1.6894172446812,267259.3761215,267261.0762003,0,0.747862399963196,3
377,1,1,2,11,1.17785592828392,267261.8242619,267263.0123391,0,1.16365609999048,2
378,1,2,5,7,1.87504294507026,267264.1762367,267266.0629507,0,1.45709729997907,7
379,1,2,5,8,1.14093261349352,267267.5201645,267268.6725059,0,1.2715876000002,7
380,1,2,4,13,1.12890760245443,267269.9442159,267271.0840835,0,3.09204429999227,5
381,1,1,6,9,1.45872188363816,267274.1762397,267275.6452544,0,1.81080530001782,7
382,1,2,8,6,1.84348222119547,267277.4561841,267279.3098502,0,1.03430539998226,8
383,1,2,5,20,1.24101569291363,267280.3442858,267281.5962805,0,1.61182970000664,3
384,1,1,5,21,1.71940600270557,267283.2082647,267284.9384326,0,1.47727350000059,4
385,1,2,2,2,1.9492585168861,267286.4158144,267288.3766011,0,1.15911289997166,3
386,1,2,5,5,1.03917026437585,267289.5358055,267290.5854154,0,1.59050630003912,4
387,1,1,3,3,1.23475758080341,267292.1760293,267293.4213786,0,0.762354300008155,2
388,1,2,7,10,1.86774752972345,267294.1838329,267296.0624409,0,1.37748520000605,7
389,1,1,6,2,1.44778114727655,267297.4400357,267298.898238,0,1.30181740003172,5
390,1,1,1,16,1.77082481000005,267300.2001774,267301.9816058,0,1.09844080003677,3
391,1,2,6,20,1.17771741973184,267303.0801926,267304.268768,0,1.80317590001505,7
392,1,1,8,3,1.37529836512006,267306.0720629,267307.4593675,0,1.98858820000896,8
393,1,1,2,7,1.76088399343379,267309.4480814,267311.2213139,0,0.778609599976335,2
394,1,1,3,6,1.43167523505071,267312.0000558,267313.4428601,0,1.74108110001544,4
395,1,2,4,20,1.77752984149129,267315.1840982,267316.9730308,0,1.23470319999615,4
396,1,1,7,1,1.77881343311974,267318.2078673,267319.9980372,0,1.39373089995934,7
