ID,State,Position ID,Morph Step,Face Person,ITI,Trial_Onset,Stim_Onset,Stim_Offset,RT,Answer
1,1,2,7,9,1.64094629449927,350191.0122096,350192.6655929,0,2.91833700001007,6
2,1,1,2,16,1.61243227444934,350195.5857303,350197.2100209,0,2.45251410000492,3
3,1,2,1,11,1.68730431551298,350199.6646537,350201.3631478,0,3.54426760005299,3
4,1,2,2,5,1.85818048618601,350204.9079717,350206.7764086,0,2.53112460003467,4
5,1,2,7,6,1.80820761364525,350209.3093089,350211.1279951,0,1.80210269999225,6
6,1,2,8,22,1.42074985688457,350212.9303532,350214.3626399,0,1.84532299998682,8
7,1,2,9,3,1.29250586345907,350216.2081051,350217.5114001,0,2.18009559996426,7
8,1,2,9,12,1.48143787571927,350219.6916164,350221.1859784,0,1.35299600003054,7
9,1,2,3,6,1.5291235689778,350222.5390934,350224.0797216,0,2.1986360999872,4
10,1,1,6,2,1.17164298871284,350226.278472,350227.4610014,0,2.33153329999186,6
11,1,2,1,17,1.67891695120003,350229.7927016,350231.482506,0,2.28565710003022,3
12,1,1,3,15,1.54616218750825,350233.768297,350235.3276111,0,2.31264190003276,2
13,1,1,3,6,1.8208387692558,350237.6404197,350239.4732041,0,2.52708630001871,5
14,1,2,5,4,1.88106689628274,350242.000435,350243.8927569,0,2.09964480000781,6
15,1,1,5,6,1.49223362525724,350245.9925161,350247.4955464,0,1.86463099997491,5
16,1,1,1,4,1.9287461885565,350249.3603994,350251.3001678,0,1.82005400001071,4
17,1,1,4,4,1.82227767175808,350253.1203464,350254.9535451,0,2.54276520002168,5
18,1,2,2,18,1.66804277040472,350257.4964351,350259.1756225,0,3.45660259999568,3
19,1,2,4,12,1.01324190104596,350262.6323623,350263.6565125,0,2.87156739999773,4
20,1,1,7,5,1.68811275155639,350266.5282047,350268.2273198,0,3.13295699999435,6
21,1,2,2,8,1.17701840991491,350271.3603995,350272.5483179,0,3.17190260003554,2
22,1,2,9,6,1.66005623432277,350275.7203408,350277.3918297,0,3.40024630003609,8
23,1,1,1,1,1.65943467937361,350280.7921948,350282.4627529,0,2.305805699958,2
24,1,2,2,21,1.2673288243202,350284.768691,350286.0470401,0,2.35224190005101,4
25,1,1,3,20,1.1964194941106,350288.3994209,350289.6062877,0,1.88354489998892,3
26,1,1,7,19,1.78629634916611,350291.4899765,350293.2869746,0,1.93120550003368,6
27,1,2,2,1,1.78763292557188,350295.2183104,350297.0171428,0,2.22474800003693,4
28,1,1,7,20,1.92790688962285,350299.2420607,350301.1800365,0,2.78115330002038,6
29,1,1,9,21,1.86419230723191,350303.9613207,350305.8359687,0,1.43850340001518,7
30,1,2,3,1,1.44364936168669,350307.2745924,350308.7295186,0,2.7940227999934,3
31,1,2,5,6,1.88938149916574,350311.5236798,350313.4240033,0,1.47802509996109,5
32,1,1,5,17,1.38214097661534,350314.9021816,350316.2963908,0,2.08404600003269,5
33,1,1,8,6,1.57710655339615,350318.3805434,350319.9675777,0,1.47513030003756,7
34,1,2,8,17,1.59286971646577,350321.4428896,350323.0463422,0,1.7345084999688,7
35,1,2,3,16,1.68508783504605,350324.7810106,350326.4771901,0,1.30134239996551,4
36,1,2,8,5,1.63471064880515,350327.7786791,350329.4242055,0,2.67285909998463,7
37,1,2,7,10,1.59914612534472,350332.0972489,350333.7081838,0,2.02249639999354,6
38,1,2,8,12,1.03350421895682,350335.7307919,350336.7750717,0,1.39781240001321,7
39,1,1,9,10,1.04908631549134,350338.1731917,350339.2343286,0,1.3607848000247,8
40,1,2,6,13,1.40360946100318,350340.5953633,350342.0101839,0,1.44149160000961,5
41,1,1,7,9,1.52785726956742,350343.4522128,350344.9911883,0,2.47995859995717,6
42,1,2,6,2,1.10974555504482,350347.471308,350348.591447,0,2.4030788000091,4
43,1,1,7,13,1.50312518504305,350350.9946451,350352.5099848,0,2.03260679997038,4
44,1,2,6,1,1.09952441758977,350354.542706,350355.6528685,0,2.41308389999904,5
45,1,1,3,18,1.77836724509086,350358.0661018,350359.8558984,0,3.57607999996981,3
46,1,1,3,19,1.57970949658422,350363.4321018,350365.0227208,0,2.51717469998403,4
47,1,2,9,19,1.88839835001257,350367.5400338,350369.4386628,0,2.28004209999926,7
48,1,1,4,7,1.65051668677284,350371.718819,350373.3798495,0,2.10002179996809,6
49,1,2,9,8,1.97223443965642,350375.4799816,350377.4643351,0,2.25706629996421,8
50,1,1,4,2,1.63001206388367,350379.7215193,350381.3625651,0,2.71817939996254,5
51,1,1,4,11,1.26148223833302,350384.0808507,350385.3536155,0,0.888938100019004,5
52,1,2,8,11,1.85463344360504,350386.2426953,350388.1079837,0,1.49792699998943,7
53,1,2,4,10,1.54718807446686,350389.6061645,350391.1647459,0,2.72527179995086,3
54,1,1,1,21,1.03598346703099,350393.8901616,350394.9373032,0,1.27980739995837,2
55,1,1,5,9,1.70516894047566,350396.2172509,350397.933712,0,1.60144719999516,4
56,1,1,8,15,1.80621635087452,350399.5352828,350401.3522737,0,1.43101639999077,8
57,1,1,7,22,1.18902425581529,350402.7834011,350403.9832604,0,1.36781429999974,7
58,1,1,4,6,1.14369377882346,350405.3511811,350406.5050614,0,2.19423429999733,3
59,1,2,6,4,1.55120474751667,350408.6994233,350410.261402,0,2.72707990003983,6
60,1,1,8,9,1.00963222022189,350412.9886089,350414.010901,0,3.19649190001655,8
61,1,1,7,17,1.29511562476073,350417.2075366,350418.5139909,0,2.20142399996985,7
62,1,2,7,3,1.86094809181077,350420.7155391,350422.5868905,0,2.81835920002777,6
63,1,1,8,5,1.24450697677265,350425.4054018,350426.6603342,0,2.92402199999196,8
64,1,1,4,10,1.97826309787759,350429.5844764,350431.5738747,0,2.65778479998698,4
65,1,2,8,15,1.98981496220185,350434.2318003,350436.231647,0,2.23187289998168,7
66,1,2,7,5,1.23201876645274,350438.4636524,350439.707373,0,3.0282211000449,7
67,1,2,6,11,1.61590632611848,350442.7357135,350444.3615346,0,3.03007450001314,6
68,1,1,3,21,1.34511543117767,350447.3917185,350448.7480855,0,3.09134600003017,4
69,1,2,4,5,1.74750057875304,350451.8395819,350453.5972975,0,2.10590959998081,5
70,1,2,4,3,1.26688664262495,350455.7033873,350456.9808268,0,1.52243750001071,4
71,1,2,4,7,1.38924158184263,350458.5033828,350459.9036408,0,1.85586780001177,6
72,1,1,6,3,1.69886641519851,350461.7596604,350463.4695674,0,1.9299619999947,6
73,1,1,4,22,1.49955902221993,350465.3996811,350466.9109106,0,3.0404128000373,4
74,1,1,8,10,1.92882105111803,350469.9514735,350471.8911799,0,3.44432880001841,8
75,1,1,2,22,1.28389086262336,350475.3356675,350476.630883,0,2.64059300004737,2
76,1,2,8,8,1.26255717532465,350479.2715921,350480.5440239,0,2.74329780001426,7
77,1,2,9,10,1.87934896389986,350483.2875505,350485.1791005,0,2.97221029998036,7
78,1,2,1,2,1.98429205871521,350488.1514478,350490.1468773,0,3.23656599997776,2
79,1,1,2,20,1.3213723314485,350493.3837012,350494.7160905,0,2.34725819999585,1
80,1,2,4,11,1.41047931282937,350497.0635964,350498.4847884,0,2.17839590000222,5
81,1,1,9,19,1.09129995920658,350500.6633147,350501.7644767,0,3.27476030000253,8
82,1,1,8,4,1.80435166367499,350505.0394127,350506.8550935,0,2.9681640000199,9
83,1,1,3,2,1.88945655341885,350509.8234893,350511.7245438,0,1.8186264000251,2
84,1,2,1,22,1.45860469650203,350513.5432919,350515.0127577,0,0.946442499989644,1
85,1,2,5,20,1.46776979987017,350515.9593425,350517.4378624,0,2.16949439997552,5
86,1,2,1,4,1.08824568397862,350519.6074781,350520.7055657,0,3.37373319995822,5
87,1,1,8,14,1.43397745632499,350524.0794386,350525.5235148,0,2.54782580002211,7
88,1,2,7,11,1.66640085593195,350528.0714517,350529.7486098,0,1.8427137999679,6
89,1,1,1,17,1.38424697308036,350531.5915154,350532.9859693,0,2.58911110000918,2
90,1,2,6,22,1.5687127817689,350535.5752566,350537.1551305,0,3.86781820002943,5
91,1,2,4,22,1.68820238957541,350541.0230993,350542.7211854,0,1.76594820001628,4
92,1,1,1,11,1.76062815776167,350544.4872621,350546.2577674,0,2.901174300001,2
93,1,2,7,22,1.7585385280473,350549.1590593,350550.9292915,0,2.12570789997699,7
94,1,2,8,6,1.59763835708475,350553.0551394,350554.6634687,0,2.15935019997414,7
95,1,1,6,8,1.41703414036337,350556.822939,350558.250974,0,1.96418660000199,6
96,1,2,1,20,1.08942991331553,350560.2152769,350561.3155975,0,1.58721289999085,2
97,1,1,6,21,1.5006689147559,350562.902929,350564.4138714,0,2.30527070001699,5
98,1,1,6,14,1.2333376749437,350566.7193348,350567.963637,0,3.61146210000152,5
99,1,1,3,22,1.84502467086379,350571.5752655,350573.4312849,0,2.68774560000747,3
100,1,2,9,22,1.44515275847924,350576.1192089,350577.5746556,0,1.95235069998307,8
101,1,1,6,15,1.21867620345838,350579.5272414,350580.7566535,0,2.54615749994991,6
102,1,2,4,8,1.13534346511899,350583.3029283,350584.449144,0,2.6378895000089,5
103,1,2,6,6,1.94673573446608,350587.0872575,350589.0445029,0,3.76237090001814,4
104,1,1,5,15,1.2368525882326,350592.8070804,350594.0549905,0,2.31987930001924,4
105,1,1,9,15,1.05553833894058,350596.3749876,350597.4423149,0,2.35645359999035,8
106,1,2,6,19,1.32848401576498,350599.7989054,350601.1379274,0,2.50885769998422,4
107,1,1,6,1,1.91943655672389,350603.6468987,350605.5771405,0,2.72570149996318,5
108,1,2,2,15,1.51575960734806,350608.3029557,350609.8302535,0,3.13645150000229,1
109,1,2,7,20,1.11074269241931,350612.9668423,350614.0880586,0,3.15087739995215,6
110,1,2,1,18,1.63511223322181,350617.2390541,350618.8847211,0,1.50613029999658,2
111,1,2,7,12,1.41046256517182,350620.3909769,350621.8119503,0,1.96293999999762,7
112,1,2,6,9,1.83999013908371,350623.775057,350625.6259515,0,2.32485409994842,5
113,1,2,5,8,1.55700730700715,350627.9509252,350629.519624,0,1.65521599998465,4
114,1,2,6,12,1.24015644866958,350631.1749809,350632.4260065,0,3.56484139995882,6
115,1,1,8,13,1.47059270725818,350635.9910808,350637.4729067,0,2.34972619998734,6
116,1,2,3,18,1.24361100205897,350639.8227629,350641.0769302,0,2.80175270000473,3
117,1,1,2,13,1.27442432941676,350643.878923,350645.1640373,0,2.35454120003851,3
118,1,2,1,15,1.98009963626061,350647.5186904,350649.5092802,0,1.20964070002083,2
119,1,1,6,18,1.20855348598501,350650.7190946,350651.9389435,0,1.79557980003301,5
120,1,2,2,16,1.89507729264011,350653.7346615,350655.6403702,0,1.92628300003707,4
121,1,2,9,17,1.88529632382058,350657.5668174,350659.4635304,0,2.11108269996475,7
122,1,1,9,16,1.32811974139766,350661.5748404,350662.9134236,0,1.8371935999603,7
123,1,2,8,1,1.29481452651361,350664.7507294,350666.055701,0,2.15895430004457,8
124,1,1,5,22,1.16785180182282,350668.2148941,350669.392526,0,2.11009259999264,4
125,1,2,7,14,1.80079839851813,350671.502741,350673.3141098,0,3.94862510001985,7
126,1,1,1,13,1.49757734365175,350677.2629142,350678.7712513,0,2.41125359997386,3
127,1,2,8,20,1.08486784226392,350681.182633,350682.2777825,0,3.1447909999988,8
128,1,2,6,16,1.08069082432986,350685.4227822,350686.5150144,0,2.09058899997035,5
129,3,2,8,19,1.86676903700868,350688.6058334,350690.484337,0,NaN,None
130,1,2,6,21,1.71413151288919,350694.484593,350696.2103403,0,2.41921890003141,4
131,1,1,9,22,1.59329470594509,350698.6296693,350700.2340187,0,2.59944819996599,7
132,1,1,2,15,1.37503616143378,350702.8335687,350704.2217707,0,1.71926470001927,2
133,1,1,1,18,1.84538006933865,350829.6670567,350831.5274252,0,2.61454770003911,2
134,1,2,5,15,1.16772647467392,350834.1438564,350835.3234886,0,1.79437629994936,4
135,1,1,3,10,1.81734997997177,350837.1180028,350838.9470649,0,1.49897069996223,3
136,1,2,6,10,1.74623230923895,350840.4461658,350842.2039566,0,1.70585979998577,6
137,1,2,8,10,1.52947863289895,350843.9099518,350845.4514755,0,2.36224689998198,8
138,1,2,1,14,1.6367180501754,350847.8138318,350849.4625953,0,2.1594031000277,1
139,1,1,3,8,1.42005099949365,350851.6221367,350853.0536889,0,2.85605909995502,3
140,1,1,9,13,1.04752632107714,350855.9098933,350856.9684376,0,1.98139540001284,7
141,1,1,2,1,1.20040196902581,350858.9499566,350860.1619367,0,2.50791799998842,3
142,1,2,5,3,1.82303300800604,350862.6699941,350864.5038057,0,2.11808179999935,5
143,1,2,5,17,1.51145500180453,350866.6219954,350868.1443016,0,2.11750480002956,5
144,1,1,3,12,1.50985751253931,350870.2619272,350871.782786,0,1.76700679998612,5
145,1,1,8,12,1.82642984751512,350873.5499295,350875.3871371,0,2.57041829999071,7
146,1,1,8,18,1.14106444966126,350877.9576884,350879.1099912,0,3.55943020002451,7
147,1,1,6,22,1.54442246224629,350882.6696438,350884.2244741,0,2.62921510002343,4
148,1,1,8,20,1.59137793986153,350886.8538322,350888.4569552,0,3.70083119999617,8
149,1,2,4,16,1.39957247311212,350892.1579062,350893.5689004,0,1.70890540000983,4
150,1,2,1,8,1.53244772157528,350895.2779297,350896.8213605,0,2.55230579996714,2
151,1,1,1,8,1.87202344579765,350899.3737731,350901.2570235,0,2.36467039998388,2
152,1,1,8,16,1.8557228551829,350903.6218016,350905.4884119,0,3.54130769998301,7
153,1,1,8,17,1.97619518214757,350909.0298589,350911.0175682,0,1.26785999996355,8
154,1,1,2,2,1.33955031017527,350912.285567,350913.6365967,0,1.90506389999064,3
155,1,2,2,12,1.12414417314449,350915.5418082,350916.6771202,0,2.28033819998382,3
156,1,1,3,3,1.59210755184846,350918.9576041,350920.5605219,0,1.36510019999696,4
157,1,2,1,21,1.23911870951871,350921.9258586,350923.1763515,0,1.28494300000602,3
158,1,2,1,9,1.07553872678824,350924.461417,350925.5483116,0,1.13069239998003,2
159,1,1,9,9,1.26205464321479,350926.6798459,350927.9536016,0,2.14772109995829,8
160,1,1,6,4,1.34478185299106,350930.1014374,350931.4580571,0,2.05155360000208,6
161,1,2,9,18,1.78350016784242,350933.509736,350935.3048991,0,2.55663240002468,7
162,1,1,5,5,1.43512146299082,350937.8616628,350939.307616,0,2.80207119998522,5
163,1,1,2,11,1.38607291762418,350942.1098876,350943.5069688,0,3.44264800002566,2
164,1,1,7,8,1.40520092245347,350946.9499485,350948.3680241,0,3.65353019995382,7
165,1,2,4,2,1.51987724312199,350952.0216948,350953.5519165,0,1.51737170002889,5
166,1,1,1,15,1.90039429343815,350955.069483,350956.9807759,0,1.60065899998881,1
167,1,2,1,10,1.41700841991771,350958.5815884,350960.0104634,0,1.12309670000104,2
168,1,2,2,17,1.77195714636664,350961.1336988,350962.9157226,0,1.63353739999002,2
169,1,1,9,3,1.29120808893492,350964.5494167,350965.8517576,0,2.29759420000482,8
170,1,2,3,20,1.94437614931583,350968.1495068,350970.1052404,0,3.74023960001068,2
171,1,1,4,15,1.34819258343763,350973.8456199,350975.2051521,0,1.94413309998345,4
172,1,1,7,15,1.81859908063884,350977.1494354,350978.9790148,0,1.93022400001064,7
173,1,1,9,6,1.92218627215871,350980.9093488,350982.8430565,0,2.45815729995957,8
174,1,2,4,17,1.20998842329492,350985.3013413,350986.5224216,0,1.41912510001566,4
175,1,2,1,12,1.9274485542449,350987.9417905,350989.8790129,0,1.94232279999414,2
176,1,1,4,1,1.16880014704537,350991.8214767,350993.0011558,0,2.00427380000474,4
177,3,2,5,5,1.64217820384213,350995.0055689,350996.6591451,0,NaN,None
178,1,1,2,3,1.05774781462245,351000.6594589,351001.7295422,0,2.25969430000987,3
179,1,1,9,18,1.21565407698407,351003.9893584,351005.2156702,0,2.46168150001904,7
180,1,2,6,20,1.6908360764822,351007.6774818,351009.3793617,0,2.36995660001412,5
181,1,1,5,13,1.33463151626523,351011.7494668,351013.0953003,0,1.66186669998569,5
182,1,1,9,20,1.024757980231,351014.7573303,351015.7936123,0,2.42770860000746,7
183,1,1,3,16,1.33973264031354,351018.2214241,351019.572146,0,2.12097699998412,4
184,1,1,6,11,1.29456562432127,351021.6932536,351022.9988375,0,2.77443460002542,6
185,1,1,1,20,1.30713060398676,351025.7734019,351027.0919338,0,1.78512469999259,2
186,1,2,5,18,1.02966267840398,351028.8771719,351029.9192832,0,1.66998050000984,4
187,1,2,9,7,1.48057352355369,351031.5894002,351033.0810343,0,2.37183210003423,8
188,1,2,3,11,1.48652670582198,351035.4529811,351036.9505029,0,1.65448800002923,3
189,1,1,8,11,1.00311856676987,351038.6053112,351039.619473,0,1.87365570000838,7
190,1,2,7,18,1.79108647490512,351041.4933559,351043.2953814,0,1.82170960004441,6
191,1,1,8,7,1.04699264751962,351045.1172802,351046.1754935,0,1.72561419999693,7
192,1,2,6,3,1.27163722857822,351047.9012561,351049.183827,0,2.2290155000519,5
193,1,2,2,19,1.99454616271854,351051.4129678,351053.4190245,0,2.00992779998342,4
194,1,2,9,14,1.9448930532227,351055.4290833,351057.3848983,0,2.37214890000178,9
195,1,1,2,19,1.78637162669605,351059.7571643,351061.5546237,0,2.93058970000129,3
196,1,2,1,16,1.57842284475551,351064.4853825,351066.0753293,0,1.48160599998664,3
197,1,2,5,1,1.46961865248795,351067.5570364,351069.0377085,0,1.4392984000151,4
198,1,1,9,4,1.61598765338819,351070.4771081,351072.1044283,0,2.85267029999522,7
199,1,1,3,11,1.00098312599005,351074.9572349,351075.9688111,0,2.3481794000254,3
200,1,2,6,17,1.49420337655421,351078.3171375,351079.8220485,0,3.20693360001314,5
201,1,1,3,9,1.8205112405415,351083.0290914,351084.8602508,0,1.52856100001372,2
202,1,1,7,10,1.04493196229584,351086.388951,351087.4437927,0,2.99324889999116,7
203,1,2,5,19,1.94110265249149,351090.4372698,351092.3896815,0,1.55926730000647,4
204,1,1,5,3,1.37557821630533,351093.9490685,351095.3360465,0,1.32482909999089,6
205,1,2,4,6,1.47254028351808,351096.6610429,351098.1444261,0,1.60444169997936,5
206,1,2,2,10,1.34884782192839,351099.7489969,351101.1093051,0,1.54325009998865,4
207,1,2,4,1,1.9072824445436,351102.6527045,351104.5713684,0,1.36955669999588,4
208,1,2,4,9,1.95103268949714,351105.9410409,351107.9031558,0,1.1579461999936,4
209,1,1,9,11,1.347411046846,351109.0612182,351110.4199932,0,2.06472810002742,7
210,1,1,6,16,1.97113019751546,351112.4848704,351114.4672391,0,1.67368919996079,6
211,1,1,8,3,1.14164064165713,351116.1410848,351117.2942243,0,2.59862080001039,7
212,1,2,7,2,1.63209448421834,351119.8929797,351121.536887,0,2.3239563999814,7
213,1,2,7,4,1.8028032664578,351123.8610096,351125.6742694,0,2.15453850000631,8
214,1,1,3,4,1.5838055755161,351127.829002,351129.4231241,0,1.66158739995444,4
215,1,2,6,15,1.68687053196518,351131.0848557,351132.7816296,0,2.31884449999779,7
216,1,2,3,2,1.91305780980171,351135.100604,351137.024501,0,3.32430400000885,3
217,1,1,4,8,1.35869790174241,351140.3489277,351141.7184508,0,1.54227410000749,5
218,1,2,5,2,1.81593256667016,351143.2608306,351145.0907746,0,2.72988860000623,5
219,1,2,8,13,1.8136445214884,351147.820834,351149.6450844,0,3.02355719998013,7
220,1,1,2,21,1.91627637942774,351152.6687727,351154.5961469,0,2.95252600003732,3
221,1,1,9,2,1.96121167922965,351157.5488347,351159.5215959,0,2.93108639999991,7
222,1,1,7,4,1.79200860687123,351162.4527995,351164.256256,0,3.48440799996024,8
223,1,1,5,7,1.7775055638712,351167.740803,351169.5287808,0,2.01982099999441,6
224,1,1,2,18,1.90294210982809,351171.5487377,351173.4622931,0,1.89407249999931,2
225,1,2,9,5,1.43425034801689,351175.3564803,351176.8022867,0,2.46596110000974,9
226,1,1,4,19,1.96646137911182,351179.2683794,351181.2455752,0,3.15902269998332,4
227,1,1,1,10,1.19575859526461,351184.4047418,351185.6113627,0,1.32926690002205,3
228,1,2,9,4,1.34262949841564,351186.9408202,351188.2942401,0,2.17425089998869,9
229,1,2,4,13,1.45837724406401,351190.4686284,351191.939036,0,1.60141300002579,5
230,1,1,1,22,1.02506761347154,351193.5405946,351194.5765827,0,1.77978219999932,1
231,1,2,5,14,1.99361028549285,351196.3565019,351198.3607658,0,2.49978640000336,4
232,1,1,1,6,1.13552659029829,351200.8606666,351202.0077806,0,1.23661490000086,3
233,1,1,5,18,1.60199980950602,351203.2446554,351204.8574826,0,1.64260919997469,5
234,1,1,7,6,1.32459561656009,351206.5002076,351207.8355813,0,1.57690909999656,6
235,1,1,8,22,1.29360054751056,351209.4126126,351210.7179803,0,1.64619850000599,7
236,1,2,7,19,1.69259616593357,351212.364415,351214.0680705,0,1.43217889999505,6
237,1,1,6,20,1.99755038844104,351215.5004408,351217.5092861,0,2.0632058000192,6
238,1,1,3,7,1.46075716106941,351219.5726442,351221.0443865,0,2.45605219999561,5
239,1,2,3,3,1.75491536931,351223.5005827,351225.2667455,0,2.27353910001693,4
240,1,2,3,13,1.71380525002984,351227.5404161,351229.2654354,0,2.59496529999888,3
241,1,2,1,1,1.19307685307105,351231.8605124,351233.0653924,0,1.68290839996189,3
242,1,1,2,9,1.51710576172408,351234.748419,351236.2785324,0,1.4218604999478,2
243,1,1,4,21,1.32421974864525,351237.7005337,351239.0360814,0,1.86429230001522,5
244,1,2,9,20,1.22908161967148,351240.9005042,351242.1407877,0,2.43940599996131,8
245,1,1,4,17,1.06294699765564,351244.5804649,351245.6546734,0,1.5814543000306,5
246,1,1,5,2,1.20114301162955,351247.2362799,351248.4487492,0,1.34737170004519,5
247,1,2,8,4,1.29547595105827,351249.7963422,351251.1033235,0,1.89292670000577,7
248,1,2,2,13,1.89057707234626,351252.9963607,351254.8970586,0,3.64323380001588,4
249,1,1,5,12,1.59426121142395,351258.5404038,351260.1457222,0,3.08240860002115,5
250,1,2,9,2,1.7212032373525,351263.2283103,351264.9609011,0,1.93923259997973,7
251,1,1,6,7,1.76568694694049,351266.9002538,351268.6768034,0,1.93539090000559,6
252,1,2,6,7,1.71167815746918,351270.6123578,351272.3348397,0,0.909248999960255,6
253,1,2,3,7,1.8289632890601,351273.2441969,351275.0841545,0,1.12800840003183,4
254,1,2,6,18,1.1492054084487,351276.212284,351277.372015,0,1.1440102000488,5
255,1,1,8,21,1.65215922837381,351278.5161945,351280.1791418,0,1.79303610004717,7
256,1,2,5,21,1.80783613753318,351281.9723524,351283.7915851,0,3.83654420002131,4
257,1,2,7,17,1.23852113741322,351287.6282523,351288.8770238,0,2.00695320003433,7
258,1,1,1,9,1.00960360171251,351290.8840803,351291.9058783,0,2.69025929999771,1
259,1,2,8,7,1.60946231448967,351294.5962776,351296.2163551,0,2.7076522000134,7
260,1,1,5,14,1.94303317200688,351298.9242061,351300.8778829,0,3.5878926999867,3
261,1,1,2,4,1.36373591628874,351304.4659937,351305.8396889,0,2.94026790000498,3
262,1,2,1,6,1.42410144704636,351308.7800844,351310.2149247,0,2.36491050000768,2
263,1,2,3,4,1.20594246245698,351312.5800126,351313.7967357,0,1.47936739999568,4
264,1,2,2,20,1.41145730154766,351315.2762905,351316.6989155,0,2.44913889997406,1
265,1,1,3,17,1.08071811351844,351466.0801711,351467.1743585,0,2.06101380003383,4
266,1,2,5,10,1.23236484613486,351469.235558,351470.4778161,0,2.8136207999778,4
267,1,1,4,9,1.0727040548443,351473.2915621,351474.3745496,0,1.0368002000032,3
268,1,1,2,10,1.78952927639157,351475.4114842,351477.2124754,0,1.06291290000081,2
269,1,1,4,12,1.54803825387348,351478.2755128,351479.8342046,0,1.65700499998638,5
270,1,2,8,2,1.3403633466446,351481.4913201,351482.8427748,0,2.24071569996886,7
271,1,2,5,7,1.56162104365086,351485.083729,351486.6581157,0,1.20917149999877,6
272,1,2,4,21,1.86698726251618,351487.8674078,351489.7452956,0,1.42600940004922,5
273,1,1,7,3,1.39389451964215,351491.1714406,351492.5768902,0,2.01022820000071,7
274,1,2,9,1,1.6021204229161,351494.5872604,351496.1997164,0,2.00335810001707,8
275,1,2,2,22,1.8155540861592,351498.2032191,351500.0285859,0,2.03869779995875,1
276,1,1,1,2,1.50273882147761,351502.0674008,351503.5803263,0,1.69488720002118,2
277,1,1,2,7,1.34189608197018,351505.2753466,351506.62822,0,2.0469740999979,2
278,1,1,3,5,1.96076833087069,351508.6754312,351510.6464683,0,2.06041659996845,5
279,1,2,3,12,1.50109527561833,351512.707002,351514.2182451,0,1.49690820003161,5
280,1,2,4,14,1.58730072255957,351515.7153243,351517.3137875,0,3.08923859999049,4
281,1,2,4,4,1.46780815904143,351520.4031589,351521.8816132,0,2.16146470000967,6
282,1,2,7,13,1.56403348570482,351524.0432507,351525.6185511,0,1.42456949996995,6
283,1,1,2,17,1.77501123000514,351527.0432668,351528.829742,0,1.901336800016,3
284,1,1,5,21,1.00351447958412,351530.7312157,351531.7466187,0,1.52101960004074,5
285,1,2,9,21,1.75792720858754,351533.2682838,351535.038223,0,2.07698459998937,7
286,1,1,2,5,1.6640720914825,351537.1153309,351538.7895179,0,3.17361100000562,2
287,1,1,7,1,1.70252930952491,351541.9632867,351543.6764526,0,3.16635210003005,7
288,1,2,8,21,1.95124926861997,351546.84293,351548.8053997,0,2.53353580000112,7
289,1,2,9,11,1.89433220753915,351551.339079,351553.2439676,0,2.26311719999649,8
290,1,1,5,8,1.13671840904786,351555.5072248,351556.6546496,0,1.61243999999715,4
291,1,1,5,10,1.45651160411436,351558.2672293,351559.7339243,0,1.37302759999875,4
292,1,2,5,13,1.64478315993358,351561.1071287,351562.7627017,0,1.20836460002465,4
293,1,1,7,12,1.02226508481116,351563.9711977,351565.0056022,0,1.62103290000232,6
294,1,2,9,9,1.84187791052331,351566.6268012,351568.4800948,0,2.84253379999427,5
295,1,2,2,6,1.24717040627545,351571.3227342,351572.5805294,0,3.30237020005006,4
296,1,1,1,12,1.22865910178472,351575.8831533,351577.1254945,0,2.55735900002765,2
297,1,2,3,8,1.30700091046616,351579.6829729,351581.0005554,0,3.16243790002773,3
298,1,2,3,14,1.85369638871297,351584.163158,351586.0280056,0,2.31078020000132,3
299,1,2,6,8,1.23441552215138,351588.338926,351589.5846396,0,2.76217959995847,6
300,1,2,1,5,1.43443286925404,351592.3469386,351593.793,0,3.19371059996774,2
301,1,2,9,15,1.40898053315497,351596.9868325,351598.4073386,0,2.94737909996184,8
302,1,1,4,3,1.58103748630352,351601.3548509,351602.9484181,0,2.8144362999592,4
303,1,1,7,21,1.27799720659822,351605.762953,351607.0522107,0,1.41467059997376,6
304,1,1,6,10,1.43545536129943,351608.4670731,351609.91423,0,3.25641790003283,5
305,1,1,9,7,1.0001593855778,351613.1708131,351614.1820284,0,1.82072550000157,7
306,1,2,8,16,1.37865570468972,351616.002928,351617.3928928,0,1.92197760002455,7
307,3,2,8,9,1.43185329054932,351619.3149861,351620.7569853,0,NaN,None
308,1,1,5,4,1.67165868882563,351624.7570234,351626.4395368,0,1.57103110000025,6
309,1,1,7,16,1.71961514646728,351628.0106806,351629.7410792,0,2.38963519997196,7
310,1,2,9,16,1.030409107016,351632.1308377,351633.1723035,0,1.89424250001321,8
311,1,1,1,5,1.87971398299903,351635.0666443,351636.9574134,0,1.83714519999921,2
312,1,2,4,18,1.71270341243903,351638.7946734,351640.5183792,0,1.5240494000027,4
313,1,1,6,12,1.90242589334436,351642.0425523,351643.9555975,0,3.15892749995692,6
314,1,2,5,16,1.74086582677683,351647.114695,351648.8661658,0,1.19254789996194,4
315,1,2,4,19,1.96785669303819,351650.0588671,351652.0389107,0,1.5715341999894,4
316,1,1,9,5,1.26265779579897,351653.6107018,351654.8850625,0,2.47764209995512,8
317,1,2,1,7,1.50851517402982,351657.3628553,351658.8852012,0,2.91733519994887,2
318,1,2,6,5,1.15681773737604,351661.8026526,351662.9704174,0,1.57730549998814,6
319,1,2,1,13,1.15049898785334,351664.5479746,351665.7093303,0,2.30928410001798,3
320,1,1,6,17,1.11482185933144,351668.0187177,351669.1442605,0,1.56210500001907,6
321,1,1,7,7,1.94562585202016,351670.7064764,351672.6636343,0,2.45871330000227,6
322,1,1,6,13,1.83622625967472,351675.1224554,351676.9688895,0,2.01764599996386,6
323,1,1,4,13,1.69377635759372,351678.9867254,351680.6909848,0,1.39158250001492,5
324,1,1,1,3,1.69095867697456,351682.0827395,351683.7855346,0,3.27296909998404,2
325,1,1,9,12,1.83805412247225,351687.0586894,351688.9081876,0,2.25409579998814,8
326,1,2,2,11,1.94500112750216,351691.1625341,351693.1179025,0,2.99655840004561,2
327,1,1,2,12,1.46144319009293,351696.1145865,351697.5882027,0,0.982218999997713,2
328,1,2,4,15,1.95615364901034,351698.570625,351700.5382383,0,2.47203569998965,3
329,1,2,1,3,1.97157978903368,351703.0104,351704.9918826,0,2.37838979996741,2
330,1,1,5,20,1.6047528514347,351707.3703944,351708.9848656,0,1.41749819996767,5
331,1,1,1,14,1.24659862364933,351710.4024721,351711.6598982,0,2.07037259999197,2
332,1,1,6,9,1.37525216051627,351713.7304876,351715.1165521,0,2.8058628999861,5
333,1,2,4,20,1.76495702061199,351717.9225404,351719.6985839,0,1.45551659999182,4
334,1,1,3,1,1.91877440177529,351721.1542073,351723.0831353,0,1.54316189995734,3
335,1,1,6,5,1.30144089819878,351724.6264785,351725.9381795,0,3.56813590001548,6
336,1,2,9,13,1.51030234648577,351729.5064528,351731.0270049,0,1.45525840000482,7
337,1,2,3,15,1.13867528947789,351732.4825823,351733.6330539,0,1.99304120003944,2
338,1,2,6,14,1.95219756700152,351735.6262169,351737.5893608,0,2.06875959999161,7
339,1,2,2,14,1.49569797025927,351739.6582892,351741.1638394,0,1.66237540001748,3
340,1,1,2,8,1.24574278309633,351742.8264085,351744.082831,0,1.55930600001011,2
341,1,2,7,16,1.18867801016103,351745.6422586,351746.8422723,0,2.04807800002163,7
342,1,2,3,22,1.33909489900838,351748.8905681,351750.2408018,0,2.83332919998793,3
343,1,2,1,19,1.6614405230761,351753.0742436,351754.7466268,0,1.75155109999469,3
344,1,2,5,11,1.8078500801598,351756.498358,351758.3167894,0,2.84544579999056,5
345,1,2,8,18,1.56979676241919,351761.1623354,351762.7436392,0,2.53026849997696,7
346,1,2,7,7,1.13576977215143,351765.2740252,351766.4210012,0,1.82916140003363,7
347,1,1,8,19,1.15855329163177,351768.2503177,351769.4208031,0,2.49316120002186,7
348,1,2,3,9,1.83438960059173,351771.9141039,351773.7583984,0,1.85960349999368,3
349,1,2,7,21,1.9190274640469,351775.6182206,351777.5489225,0,2.57317640003748,7
350,1,1,1,19,1.81841928884725,351780.122194,351781.9526728,0,2.25735159998294,3
351,1,1,1,7,1.86357784720926,351784.2101638,351786.0848502,0,2.32508859998779,1
352,1,1,9,14,1.72452970053892,351788.4101621,351790.1454676,0,3.45638939994387,8
353,1,1,3,14,1.7983864779843,351793.6019705,351795.4107971,0,3.15092899999581,4
354,1,1,5,1,1.96375425646336,351798.561851,351800.53631,0,1.67355070001213,5
355,1,1,2,14,1.73756323446548,351802.2099805,351803.958035,0,3.275949199975,2
356,1,2,8,3,1.68402257460643,351807.2341663,351808.9293894,0,2.0644816000131,7
357,1,1,4,16,1.34236289174205,351810.993989,351812.3473207,0,2.1107152000186,5
358,1,1,9,8,1.25797135491085,351814.4582096,351815.7276827,0,2.57840740005486,7
359,1,1,4,5,1.91817214434319,351818.3062496,351820.235651,0,1.46206370001892,5
360,1,2,7,15,1.21491505867314,351821.6978573,351822.9237976,0,2.93418940005358,7
361,1,2,2,2,1.23247366392512,351825.8581527,351827.1009602,0,1.78898499999195,3
362,1,2,3,10,1.31686440399412,351828.8900826,351830.2172129,0,1.41647080000257,3
363,1,1,7,14,1.44327180686789,351831.6338284,351833.0885968,0,2.92134479997912,8
364,1,2,5,12,1.13906117551397,351836.010044,351837.1609654,0,1.68081190000521,5
365,1,1,7,11,1.50037080614179,351838.8419172,351840.353117,0,2.52059919998283,6
366,1,2,7,8,1.88224983218911,351842.8738489,351844.7668441,0,2.21130989998346,6
367,1,1,5,11,1.9151732053117,351846.9783588,351848.9068563,0,1.05468919995474,5
368,1,1,7,18,1.51205256215309,351849.9616462,351851.4853067,0,3.47629319998669,6
369,1,2,2,7,1.72497459848383,351854.961788,351856.6978308,0,1.56775689998176,3
370,1,2,3,5,1.08922607255966,351858.2657173,351859.3663335,0,1.44320019998122,5
371,1,1,5,19,1.50255143714212,351860.8096459,351862.3279004,0,1.95371430000523,4
372,1,2,3,17,1.99713095653729,351864.2817221,351866.2899787,0,1.54359800001839,3
373,1,1,9,17,1.44605315267391,351867.833715,351869.2914977,0,2.36602650000714,8
374,1,2,2,9,1.83893686447193,351871.6576484,351873.5080061,0,2.07775229995605,2
375,1,1,6,6,1.28296411363047,351875.5858972,351876.8788259,0,1.93874249997316,6
376,1,2,2,3,1.02226348482081,351878.8176736,351879.8509079,0,2.37450079998234,3
377,1,1,8,2,1.77372483050856,351882.2256287,351884.0101342,0,1.74334789998829,7
378,1,1,5,16,1.38988277986238,351885.7536063,351887.1547958,0,2.41473150003003,4
379,1,2,3,19,1.02697408676429,351889.5696653,351890.6073562,0,1.79400769999484,4
380,1,2,5,22,1.39388295636876,351892.4015292,351893.8065273,0,1.30799719999777,5
381,1,1,7,2,1.22019250359656,351895.1150363,351896.3467502,0,3.36689169995952,7
382,1,1,4,14,1.37703624854628,351899.713751,351901.1025829,0,3.37885280000046,4
383,1,1,8,1,1.8529739099664,351904.4815735,351906.3451313,0,2.64035280002281,8
384,1,1,9,1,1.69801235455342,351908.9856009,351910.6943717,0,2.45920979999937,9
385,1,1,4,18,1.14917524612113,351913.1537459,351914.3142084,0,2.38332389999414,5
386,1,1,8,8,1.46603744366883,351916.6976683,351918.1748817,0,1.65034900000319,7
387,1,1,6,19,1.45414122847661,351919.8255008,351921.291263,0,1.53425979998428,6
388,1,1,3,13,1.96659636193652,351922.8257076,351924.8041525,0,1.86941859999206,5
389,1,2,5,9,1.95691223929024,351926.6736959,351928.6414623,0,1.61587670003064,4
390,1,1,1,16,1.23861367319112,351930.25745,351931.5073228,0,1.50202860002173,3
391,1,2,3,21,1.14296155735741,351933.0094793,351934.1638601,0,1.01339430001099,4
392,1,2,7,1,1.53602941228475,351935.1773588,351936.7243116,0,1.73311040003318,7
393,1,2,2,4,1.10408317477879,351938.4576068,351939.5773906,0,1.7280749999918,4
394,1,1,4,20,1.22247731572649,351941.3055664,351942.5394063,0,2.82996260002255,5
395,1,2,8,14,1.95000471698155,351945.3695474,351947.3304579,0,2.66279129998293,8
396,1,1,2,6,1.72136448554079,351949.9934189,351951.7256685,0,2.40354440000374,4
